timestamp_ns,accel_x,accel_y,accel_z
1775801474342912284,-0.814552,-0.030886,9.78588
1775801474343101543,-0.814552,-0.030886,9.78588
1775801474343845942,-0.814552,-0.030886,9.78588
1775801474344807636,-0.814552,-0.030886,9.78588
1775801474345754683,-0.814552,-0.030886,9.78588
1775801474346801655,-0.814552,-0.030886,9.78588
1775801474347742257,-0.827329,-0.037882,9.78552
1775801474348750575,-0.827329,-0.037882,9.78552
1775801474349820032,-0.827329,-0.037882,9.78552
1775801474350830974,-0.827329,-0.037882,9.78552
1775801474351845328,-0.827329,-0.037882,9.78552
1775801474352785844,-0.833427,-0.040904,9.78178
1775801474353880793,-0.833427,-0.040904,9.78178
1775801474354855684,-0.833427,-0.040904,9.78178
1775801474355807415,-0.833427,-0.040904,9.78178
1775801474356791140,-0.833427,-0.040904,9.78178
1775801474357860301,-0.831494,-0.033296,9.78157
1775801474358867968,-0.831494,-0.033296,9.78157
1775801474359885255,-0.831494,-0.033296,9.78157
1775801474360780706,-0.831494,-0.033296,9.78157
1775801474361835267,-0.831494,-0.033296,9.78157
1775801474362880532,-0.828345,-0.027248,9.78953
1775801474363896600,-0.828345,-0.027248,9.78953
1775801474364803848,-0.828345,-0.027248,9.78953
1775801474365945646,-0.828345,-0.027248,9.78953
1775801474366821374,-0.828345,-0.027248,9.78953
1775801474367840661,-0.831199,-0.034767,9.78605
1775801474368742885,-0.831199,-0.034767,9.78605
1775801474369827124,-0.831199,-0.034767,9.78605
1775801474370873873,-0.831199,-0.034767,9.78605
1775801474371766541,-0.831199,-0.034767,9.78605
1775801474372805597,-0.822442,-0.042737,9.78024
1775801474373854911,-0.822442,-0.042737,9.78024
1775801474374868115,-0.822442,-0.042737,9.78024
1775801474375873757,-0.822442,-0.042737,9.78024
1775801474376805111,-0.814818,-0.028685,9.77739
1775801474377923870,-0.814818,-0.028685,9.77739
1775801474378967790,-0.814818,-0.028685,9.77739
1775801474379916741,-0.814818,-0.028685,9.77739
1775801474380848679,-0.814818,-0.028685,9.77739
1775801474382261536,-0.816106,-0.013564,9.78643
1775801474382935186,-0.816106,-0.013564,9.78643
1775801474383933618,-0.816106,-0.013564,9.78643
1775801474384815795,-0.816106,-0.013564,9.78643
1775801474385803335,-0.816106,-0.013564,9.78643
1775801474386852404,-0.832451,-0.00974,9.79103
1775801474387917778,-0.832451,-0.00974,9.79103
1775801474388915243,-0.832451,-0.00974,9.79103
1775801474389981902,-0.832451,-0.00974,9.79103
1775801474390885273,-0.832451,-0.00974,9.79103
1775801474392132724,-0.846257,0.004647,9.78308
1775801474392899661,-0.846257,0.004647,9.78308
1775801474394008944,-0.846257,0.004647,9.78308
1775801474394799490,-0.846257,0.004647,9.78308
1775801474395944614,-0.846257,0.004647,9.78308
1775801474396751284,-0.819448,-0.003741,9.79334
1775801474397930105,-0.819448,-0.003741,9.79334
1775801474398973558,-0.819448,-0.003741,9.79334
1775801474399939252,-0.819448,-0.003741,9.79334
1775801474400706329,-0.819448,-0.003741,9.79334
1775801474402019735,-0.777526,-0.018724,9.80766
1775801474402734055,-0.777526,-0.018724,9.80766
1775801474404056173,-0.777526,-0.018724,9.80766
1775801474404667088,-0.777526,-0.018724,9.80766
1775801474405847083,-0.777526,-0.018724,9.80766
1775801474406689511,-0.777526,-0.018724,9.80766
1775801474407790794,-0.749462,-0.024583,9.81126
1775801474408698174,-0.749462,-0.024583,9.81126
1775801474409882122,-0.749462,-0.024583,9.81126
1775801474410812122,-0.749462,-0.024583,9.81126
1775801474411914573,-0.749462,-0.024583,9.81126
1775801474412694274,-0.749462,-0.024583,9.81126
1775801474413920872,-0.781184,-0.07404,9.80532
1775801474414774294,-0.781184,-0.07404,9.80532
1775801474415897811,-0.781184,-0.07404,9.80532
1775801474416684697,-0.781184,-0.07404,9.80532
1775801474417908450,-0.789096,-0.09568,9.8084
1775801474418933648,-0.789096,-0.09568,9.8084
1775801474419937116,-0.789096,-0.09568,9.8084
1775801474420882997,-0.789096,-0.09568,9.8084
1775801474421906851,-0.789096,-0.09568,9.8084
1775801474422821624,-0.789096,-0.09568,9.8084
1775801474423933564,-0.765666,-0.069957,9.8168
1775801474424692638,-0.765666,-0.069957,9.8168
1775801474425860975,-0.765666,-0.069957,9.8168
1775801474426721175,-0.765666,-0.069957,9.8168
1775801474427992435,-0.715291,-0.024573,9.82311
1775801474428714714,-0.715291,-0.024573,9.82311
1775801474429922331,-0.715291,-0.024573,9.82311
1775801474430709536,-0.715291,-0.024573,9.82311
1775801474431950734,-0.715291,-0.024573,9.82311
1775801474432715821,-0.715291,-0.024573,9.82311
1775801474433905056,-0.636627,0.02151,9.84307
1775801474434912360,-0.636627,0.02151,9.84307
1775801474435977317,-0.636627,0.02151,9.84307
1775801474436662226,-0.636627,0.02151,9.84307
1775801474437861279,-0.62653,0.064213,9.85479
1775801474438737189,-0.62653,0.064213,9.85479
1775801474439899813,-0.62653,0.064213,9.85479
1775801474440647671,-0.62653,0.064213,9.85479
1775801474441816091,-0.685132,0.042661,9.82707
1775801474442766686,-0.685132,0.042661,9.82707
1775801474443990654,-0.685132,0.042661,9.82707
1775801474444678076,-0.685132,0.042661,9.82707
1775801474445887875,-0.685132,0.042661,9.82707
1775801474446764297,-0.685132,0.042661,9.82707
1775801474447804306,-0.741403,0.008032,9.80256
1775801474448656918,-0.741403,0.008032,9.80256
1775801474449823640,-0.741403,0.008032,9.80256
1775801474450738448,-0.741403,0.008032,9.80256
1775801474451831504,-0.741403,0.008032,9.80256
1775801474452618783,-0.754037,0.010051,9.78285
1775801474453797415,-0.754037,0.010051,9.78285
1775801474454874593,-0.754037,0.010051,9.78285
1775801474455946871,-0.754037,0.010051,9.78285
1775801474456798938,-0.70556,0.031249,9.78641
1775801474457849353,-0.70556,0.031249,9.78641
1775801474458821342,-0.70556,0.031249,9.78641
1775801474459895599,-0.70556,0.031249,9.78641
1775801474460698511,-0.70556,0.031249,9.78641
1775801474461780950,-0.70556,0.031249,9.78641
1775801474462897273,-0.633924,0.048603,9.7963
1775801474463726226,-0.633924,0.048603,9.7963
1775801474464650062,-0.633924,0.048603,9.7963
1775801474465756531,-0.633924,0.048603,9.7963
1775801474466750755,-0.633924,0.048603,9.7963
1775801474467732127,-0.635748,-0.042788,9.7745
1775801474468674447,-0.635748,-0.042788,9.7745
1775801474469722912,-0.635748,-0.042788,9.7745
1775801474470761591,-0.635748,-0.042788,9.7745
1775801474471786458,-0.635748,-0.042788,9.7745
1775801474472585944,-0.635748,-0.042788,9.7745
1775801474473653907,-0.675431,-0.102356,9.77162
1775801474474626350,-0.675431,-0.102356,9.77162
1775801474475707615,-0.675431,-0.102356,9.77162
1775801474476633272,-0.675431,-0.102356,9.77162
1775801474477665074,-0.675431,-0.102356,9.77162
1775801474478662070,-0.820333,-0.119005,9.72828
1775801474479668843,-0.820333,-0.119005,9.72828
1775801474480647528,-0.820333,-0.119005,9.72828
1775801474481890553,-0.820333,-0.119005,9.72828
1775801474482726435,-0.765991,-0.138997,9.77404
1775801474483769017,-0.765991,-0.138997,9.77404
1775801474484814130,-0.765991,-0.138997,9.77404
1775801474486350317,-0.765991,-0.138997,9.77404
1775801474486713031,-0.765991,-0.138997,9.77404
1775801474487838380,-0.708229,-0.119478,9.79662
1775801474488682537,-0.708229,-0.119478,9.79662
1775801474489931702,-0.708229,-0.119478,9.79662
1775801474490730346,-0.708229,-0.119478,9.79662
1775801474491839300,-0.708229,-0.119478,9.79662
1775801474492716113,-0.738377,-0.14064,9.71487
1775801474493881172,-0.738377,-0.14064,9.71487
1775801474494820640,-0.738377,-0.14064,9.71487
1775801474495929489,-0.738377,-0.14064,9.71487
1775801474496702712,-0.738377,-0.14064,9.71487
1775801474497872269,-0.842889,-0.064674,9.64377
1775801474498923327,-0.842889,-0.064674,9.64377
1775801474499831031,-0.842889,-0.064674,9.64377
1775801474500740693,-0.842889,-0.064674,9.64377
1775801474501890608,-0.853158,-0.128503,9.77121
1775801474502835536,-0.853158,-0.128503,9.77121
1775801474503832568,-0.853158,-0.128503,9.77121
1775801474504687789,-0.853158,-0.128503,9.77121
1775801474505794851,-0.853158,-0.128503,9.77121
1775801474506799470,-0.853158,-0.128503,9.77121
1775801474507865202,-0.945384,-0.16626,9.77504
1775801474508665975,-0.945384,-0.16626,9.77504
1775801474509917426,-0.945384,-0.16626,9.77504
1775801474510812522,-0.945384,-0.16626,9.77504
1775801474511871162,-0.939852,-0.040619,9.71361
1775801474513073453,-0.939852,-0.040619,9.71361
1775801474513883000,-0.939852,-0.040619,9.71361
1775801474514819527,-0.939852,-0.040619,9.71361
1775801474515909651,-0.939852,-0.040619,9.71361
1775801474516719335,-0.939852,-0.040619,9.71361
1775801474518081670,-0.857618,0.003702,9.71624
1775801474518734602,-0.857618,0.003702,9.71624
1775801474519902356,-0.857618,0.003702,9.71624
1775801474520664294,-0.857618,0.003702,9.71624
1775801474521867312,-0.857618,0.003702,9.71624
1775801474522825123,-0.857618,0.003702,9.71624
1775801474523907344,-0.864488,-0.045061,9.73768
1775801474524686843,-0.864488,-0.045061,9.73768
1775801474525878085,-0.864488,-0.045061,9.73768
1775801474526839898,-0.864488,-0.045061,9.73768
1775801474527934812,-0.861748,-0.042014,9.7365
1775801474528706226,-0.861748,-0.042014,9.7365
1775801474529937130,-0.861748,-0.042014,9.7365
1775801474530848249,-0.861748,-0.042014,9.7365
1775801474531902456,-0.861748,-0.042014,9.7365
1775801474532756324,-0.846823,-0.083203,9.75867
1775801474533918184,-0.846823,-0.083203,9.75867
1775801474534815618,-0.846823,-0.083203,9.75867
1775801474535881927,-0.846823,-0.083203,9.75867
1775801474536684324,-0.846823,-0.083203,9.75867
1775801474537930598,-0.811877,-0.007022,9.73082
1775801474538706076,-0.811877,-0.007022,9.73082
1775801474539881817,-0.811877,-0.007022,9.73082
1775801474540689532,-0.811877,-0.007022,9.73082
1775801474541843912,-0.811877,-0.007022,9.73082
1775801474542774483,-0.779671,0.094758,9.70254
1775801474543839227,-0.779671,0.094758,9.70254
1775801474544650868,-0.779671,0.094758,9.70254
1775801474545925203,-0.779671,0.094758,9.70254
1775801474546781086,-0.779671,0.094758,9.70254
1775801474547876940,-0.789376,0.111133,9.72979
1775801474548845732,-0.789376,0.111133,9.72979
1775801474549890515,-0.789376,0.111133,9.72979
1775801474550828310,-0.789376,0.111133,9.72979
1775801474551908484,-0.789376,0.111133,9.72979
1775801474552696487,-0.855662,0.001063,9.74105
1775801474553947057,-0.855662,0.001063,9.74105
1775801474554776895,-0.855662,0.001063,9.74105
1775801474555928949,-0.855662,0.001063,9.74105
1775801474556654277,-0.855662,0.001063,9.74105
1775801474557833258,-0.743036,-0.03139,9.7681
1775801474558806059,-0.743036,-0.03139,9.7681
1775801474559863397,-0.743036,-0.03139,9.7681
1775801474560631693,-0.743036,-0.03139,9.7681
1775801474561896236,-0.743036,-0.03139,9.7681
1775801474562822346,-0.691972,-0.011221,9.73918
1775801474563887171,-0.691972,-0.011221,9.73918
1775801474564786379,-0.691972,-0.011221,9.73918
1775801474566002356,-0.691972,-0.011221,9.73918
1775801474566939331,-0.743815,0.099669,9.70042
1775801474567917506,-0.743815,0.099669,9.70042
1775801474568999986,-0.743815,0.099669,9.70042
1775801474569995054,-0.743815,0.099669,9.70042
1775801474571026512,-0.743815,0.099669,9.70042
1775801474571958113,-0.743815,0.099669,9.70042
1775801474572989137,-0.772334,0.08526,9.75704
1775801474574011111,-0.772334,0.08526,9.75704
1775801474574914553,-0.772334,0.08526,9.75704
1775801474576104960,-0.772334,0.08526,9.75704
1775801474577006100,-0.810342,-0.060795,9.80308
1775801474577879501,-0.810342,-0.060795,9.80308
1775801474578984795,-0.810342,-0.060795,9.80308
1775801474579893273,-0.810342,-0.060795,9.80308
1775801474580843325,-0.810342,-0.060795,9.80308
1775801474581984663,-0.861598,-0.198863,9.732
1775801474582970129,-0.861598,-0.198863,9.732
1775801474584019656,-0.861598,-0.198863,9.732
1775801474584848195,-0.861598,-0.198863,9.732
1775801474586044674,-0.861598,-0.198863,9.732
1775801474586920290,-0.833554,-0.224811,9.68919
1775801474588021532,-0.833554,-0.224811,9.68919
1775801474588854185,-0.833554,-0.224811,9.68919
1775801474589928478,-0.833554,-0.224811,9.68919
1775801474591048366,-0.833554,-0.224811,9.68919
1775801474591798934,-0.833554,-0.224811,9.68919
1775801474592835985,-0.809887,-0.117262,9.79269
1775801474593950309,-0.809887,-0.117262,9.79269
1775801474594953731,-0.809887,-0.117262,9.79269
1775801474595949515,-0.809887,-0.117262,9.79269
1775801474596882321,-0.809887,-0.117262,9.79269
1775801474598164258,-0.82674,0.025499,9.85833
1775801474598850036,-0.82674,0.025499,9.85833
1775801474600017481,-0.82674,0.025499,9.85833
1775801474600992493,-0.82674,0.025499,9.85833
1775801474601914115,-0.897608,0.009978,9.82571
1775801474602872883,-0.897608,0.009978,9.82571
1775801474604011191,-0.897608,0.009978,9.82571
1775801474604831723,-0.897608,0.009978,9.82571
1775801474606008554,-0.897608,0.009978,9.82571
1775801474606951444,-0.897608,0.009978,9.82571
1775801474608070405,-0.890505,-0.143208,9.75307
1775801474608791417,-0.890505,-0.143208,9.75307
1775801474609973347,-0.890505,-0.143208,9.75307
1775801474610881002,-0.890505,-0.143208,9.75307
1775801474611958394,-0.881332,-0.090154,9.77415
1775801474612829137,-0.881332,-0.090154,9.77415
1775801474614040909,-0.881332,-0.090154,9.77415
1775801474614900343,-0.881332,-0.090154,9.77415
1775801474616079504,-0.881332,-0.090154,9.77415
1775801474616773445,-0.881332,-0.090154,9.77415
1775801474618087828,-0.862989,0.103977,9.86588
1775801474618924086,-0.862989,0.103977,9.86588
1775801474620024150,-0.862989,0.103977,9.86588
1775801474620775925,-0.862989,0.103977,9.86588
1775801474621877735,-0.862989,0.103977,9.86588
1775801474622776531,-0.856544,0.117256,9.86799
1775801474623867642,-0.856544,0.117256,9.86799
1775801474624665748,-0.856544,0.117256,9.86799
1775801474625793979,-0.856544,0.117256,9.86799
1775801474626723839,-0.856544,0.117256,9.86799
1775801474627878627,-0.91131,0.007349,9.83936
1775801474628664287,-0.91131,0.007349,9.83936
1775801474629884385,-0.91131,0.007349,9.83936
1775801474630854681,-0.91131,0.007349,9.83936
1775801474631939282,-0.91131,0.007349,9.83936
1775801474632676281,-0.797773,-0.073399,9.87016
1775801474633995290,-0.797773,-0.073399,9.87016
1775801474634744693,-0.797773,-0.073399,9.87016
1775801474635865536,-0.797773,-0.073399,9.87016
1775801474636696358,-0.797773,-0.073399,9.87016
1775801474637816214,-0.63064,0.008917,9.85202
1775801474638836671,-0.63064,0.008917,9.85202
1775801474639984324,-0.63064,0.008917,9.85202
1775801474640674073,-0.63064,0.008917,9.85202
1775801474641818249,-0.63064,0.008917,9.85202
1775801474642819603,-0.63064,0.008917,9.85202
1775801474643888952,-0.67989,0.174473,9.8175
1775801474644652798,-0.67989,0.174473,9.8175
1775801474645991982,-0.67989,0.174473,9.8175
1775801474646678355,-0.67989,0.174473,9.8175
1775801474647903885,-0.710322,0.129457,9.8652
1775801474648683780,-0.710322,0.129457,9.8652
1775801474650018796,-0.710322,0.129457,9.8652
1775801474650729013,-0.710322,0.129457,9.8652
1775801474651937821,-0.737646,0.059979,9.92447
1775801474652767667,-0.737646,0.059979,9.92447
1775801474654099074,-0.737646,0.059979,9.92447
1775801474655160196,-0.737646,0.059979,9.92447
1775801474655828472,-0.737646,0.059979,9.92447
1775801474656710704,-0.737646,0.059979,9.92447
1775801474657911469,-0.74778,0.031497,9.89684
1775801474658835138,-0.74778,0.031497,9.89684
1775801474659860925,-0.74778,0.031497,9.89684
1775801474660677614,-0.74778,0.031497,9.89684
1775801474661874578,-0.734874,0.041717,9.87294
1775801474662843915,-0.734874,0.041717,9.87294
1775801474663865307,-0.734874,0.041717,9.87294
1775801474664647350,-0.734874,0.041717,9.87294
1775801474665892541,-0.734874,0.041717,9.87294
1775801474666766389,-0.734874,0.041717,9.87294
1775801474667881582,-0.732602,0.025337,9.85461
1775801474668661367,-0.732602,0.025337,9.85461
1775801474669938184,-0.732602,0.025337,9.85461
1775801474670840229,-0.732602,0.025337,9.85461
1775801474671934668,-0.732602,0.025337,9.85461
1775801474672689034,-0.732602,0.025337,9.85461
1775801474673931396,-0.705405,0.022427,9.8912
1775801474674902894,-0.705405,0.022427,9.8912
1775801474675929804,-0.705405,0.022427,9.8912
1775801474676724063,-0.705405,0.022427,9.8912
1775801474677945620,-0.705405,0.022427,9.8912
1775801474678821542,-0.745663,0.018831,9.8644
1775801474679929414,-0.745663,0.018831,9.8644
1775801474680686753,-0.745663,0.018831,9.8644
1775801474681934049,-0.745663,0.018831,9.8644
1775801474682795967,-0.745663,0.018831,9.8644
1775801474683865632,-0.76476,0.012283,9.85919
1775801474684749350,-0.76476,0.012283,9.85919
1775801474685893178,-0.76476,0.012283,9.85919
1775801474686842956,-0.76476,0.012283,9.85919
1775801474688079036,-0.76,0.012283,9.85919
1775801474688647599,-0.720463,0.019102,9.89235
1775801474689866862,-0.720463,0.019102,9.89235
1775801474690688255,-0.720463,0.019102,9.89235
1775801474691836740,-0.720463,0.019102,9.89235
1775801474692682756,-0.720463,0.019102,9.89235
1775801474693828120,-0.708805,-0.026306,9.89329
1775801474694722018,-0.708805,-0.026306,9.89329
1775801474695823330,-0.708805,-0.026306,9.89329
1775801474696636260,-0.708805,-0.026306,9.89329
1775801474697927678,-0.708805,-0.026306,9.89329
1775801474698756632,-0.675183,-0.14868,9.83584
1775801474699830772,-0.675183,-0.14868,9.83584
1775801474700637681,-0.675183,-0.14868,9.83584
1775801474701890200,-0.675183,-0.14868,9.83584
1775801474702744511,-0.675183,-0.14868,9.83584
1775801474703863229,-0.68567,-0.151364,9.7817
1775801474704705495,-0.68567,-0.151364,9.7817
1775801474705891026,-0.68567,-0.151364,9.7817
1775801474706682609,-0.68567,-0.151364,9.7817
1775801474707847961,-0.673163,-0.07576,9.80957
1775801474708645873,-0.673163,-0.07576,9.80957
1775801474709655270,-0.673163,-0.07576,9.80957
1775801474710672799,-0.673163,-0.07576,9.80957
1775801474711669704,-0.673163,-0.07576,9.80957
1775801474712638309,-0.633754,-0.044154,9.85931
1775801474713660517,-0.633754,-0.044154,9.85931
1775801474714642136,-0.633754,-0.044154,9.85931
1775801474715675452,-0.633754,-0.044154,9.85931
1775801474716652262,-0.633754,-0.044154,9.85931
1775801474717656822,-0.678361,-0.016552,9.82814
1775801474718680065,-0.678361,-0.016552,9.82814
1775801474719671290,-0.678361,-0.016552,9.82814
1775801474720631194,-0.678361,-0.016552,9.82814
1775801474721902347,-0.678361,-0.016552,9.82814
1775801474722660630,-0.723129,0.006218,9.8153
1775801474723907792,-0.723129,0.006218,9.8153
1775801474724654354,-0.723129,0.006218,9.8153
1775801474725869046,-0.723129,0.006218,9.8153
1775801474726807717,-0.723129,0.006218,9.8153
1775801474727874739,-0.729666,-0.010208,9.79303
1775801474728683382,-0.729666,-0.010208,9.79303
1775801474729961552,-0.729666,-0.010208,9.79303
1775801474730706377,-0.729666,-0.010208,9.79303
1775801474731838460,-0.729666,-0.010208,9.79303
1775801474732649097,-0.816733,-0.069847,9.74018
1775801474733865476,-0.816733,-0.069847,9.74018
1775801474734902720,-0.816733,-0.069847,9.74018
1775801474735923463,-0.816733,-0.069847,9.74018
1775801474736762054,-0.816733,-0.069847,9.74018
1775801474737993759,-0.846362,-0.054498,9.73658
1775801474738963552,-0.846362,-0.054498,9.73658
1775801474739860680,-0.846362,-0.054498,9.73658
1775801474740837025,-0.846362,-0.054498,9.73658
1775801474741873550,-0.846362,-0.054498,9.73658
1775801474742645965,-0.824115,0.054427,9.75601
1775801474744003704,-0.824115,0.054427,9.75601
1775801474744632815,-0.824115,0.054427,9.75601
1775801474745889580,-0.824115,0.054427,9.75601
1775801474746663643,-0.824115,0.054427,9.75601
1775801474747881351,-0.857978,-0.020224,9.75264
1775801474748632716,-0.857978,-0.020224,9.75264
1775801474749862118,-0.857978,-0.020224,9.75264
1775801474750692956,-0.857978,-0.020224,9.75264
1775801474751933153,-0.857978,-0.020224,9.75264
1775801474752654971,-0.880095,-0.07183,9.72151
1775801474753901153,-0.880095,-0.07183,9.72151
1775801474754772882,-0.880095,-0.07183,9.72151
1775801474755796889,-0.880095,-0.07183,9.72151
1775801474756655432,-0.880095,-0.07183,9.72151
1775801474757831913,-0.836107,0.027845,9.71826
1775801474758700811,-0.836107,0.027845,9.71826
1775801474759848028,-0.836107,0.027845,9.71826
1775801474760656106,-0.836107,0.027845,9.71826
1775801474761843257,-0.836107,0.027845,9.71826
1775801474762804886,-0.834762,0.08802,9.69497
1775801474763865029,-0.834762,0.08802,9.69497
1775801474764655547,-0.834762,0.08802,9.69497
1775801474765844159,-0.834762,0.08802,9.69497
1775801474766776563,-0.834762,0.08802,9.69497
1775801474767888113,-0.840326,0.026378,9.72054
1775801474768643453,-0.840326,0.026378,9.72054
1775801474769867539,-0.840326,0.026378,9.72054
1775801474770699792,-0.840326,0.026378,9.72054
1775801474771846909,-0.840326,0.026378,9.72054
1775801474772657364,-0.844299,-0.014092,9.72029
1775801474773855170,-0.844299,-0.014092,9.72029
1775801474774756505,-0.844299,-0.014092,9.72029
1775801474775867696,-0.844299,-0.014092,9.72029
1775801474776867485,-0.722281,-0.003558,9.70978
1775801474777849581,-0.722281,-0.003558,9.70978
1775801474778747086,-0.722281,-0.003558,9.70978
1775801474779824169,-0.722281,-0.003558,9.70978
1775801474780609532,-0.722281,-0.003558,9.70978
1775801474781763094,-0.722281,-0.003558,9.70978
1775801474782639384,-0.673608,-0.009289,9.72125
1775801474783734857,-0.673608,-0.009289,9.72125
1775801474784630831,-0.673608,-0.009289,9.72125
1775801474785909938,-0.673608,-0.009289,9.72125
1775801474786771956,-0.673608,-0.009289,9.72125
1775801474787870936,-0.678029,-0.088584,9.74202
1775801474788636859,-0.678029,-0.088584,9.74202
1775801474789963656,-0.678029,-0.088584,9.74202
1775801474790755946,-0.678029,-0.088584,9.74202
1775801474791851625,-0.678029,-0.088584,9.74202
1775801474792665577,-0.674711,-0.16681,9.72667
1775801474793817458,-0.674711,-0.16681,9.72667
1775801474794657988,-0.674711,-0.16681,9.72667
1775801474795924394,-0.674711,-0.16681,9.72667
1775801474796717603,-0.674711,-0.16681,9.72667
1775801474797865456,-0.66559,-0.193764,9.71322
1775801474798876386,-0.66559,-0.193764,9.71322
1775801474799844890,-0.66559,-0.193764,9.71322
1775801474800713729,-0.66559,-0.193764,9.71322
1775801474801867531,-0.619097,-0.22179,9.71337
1775801474802743267,-0.619097,-0.22179,9.71337
1775801474803734129,-0.619097,-0.22179,9.71337
1775801474804755261,-0.619097,-0.22179,9.71337
1775801474805809983,-0.619097,-0.22179,9.71337
1775801474806847279,-0.64079,-0.201841,9.71418
1775801474807890850,-0.64079,-0.201841,9.71418
1775801474808802754,-0.64079,-0.201841,9.71418
1775801474809803246,-0.64079,-0.201841,9.71418
1775801474810835062,-0.64079,-0.201841,9.71418
1775801474811798708,-0.675029,-0.142985,9.73219
1775801474812742804,-0.675029,-0.142985,9.73219
1775801474813817863,-0.675029,-0.142985,9.73219
1775801474814815002,-0.675029,-0.142985,9.73219
1775801474815813326,-0.675029,-0.142985,9.73219
1775801474816716199,-0.675029,-0.142985,9.73219
1775801474817847430,-0.617272,-0.139329,9.72829
1775801474818834834,-0.617272,-0.139329,9.72829
1775801474819855096,-0.617272,-0.139329,9.72829
1775801474820774040,-0.617272,-0.139329,9.72829
1775801474821769369,-0.617272,-0.139329,9.72829
1775801474822818150,-0.617127,-0.056032,9.71568
1775801474823853147,-0.617127,-0.056032,9.71568
1775801474824644095,-0.617127,-0.056032,9.71568
1775801474825809760,-0.617127,-0.056032,9.71568
1775801474826695095,-0.617127,-0.056032,9.71568
1775801474827811020,-0.704113,0.019175,9.70177
1775801474828774042,-0.704113,0.019175,9.70177
1775801474829807280,-0.704113,0.019175,9.70177
1775801474830773927,-0.704113,0.019175,9.70177
1775801474831923731,-0.704528,0.02994,9.69748
1775801474832647369,-0.704528,0.02994,9.69748
1775801474833826472,-0.704528,0.02994,9.69748
1775801474834717953,-0.704528,0.02994,9.69748
1775801474835898156,-0.704528,0.02994,9.69748
1775801474836658919,-0.704528,0.02994,9.69748
1775801474837904293,-0.696111,0.099457,9.70197
1775801474838721823,-0.696111,0.099457,9.70197
1775801474839830525,-0.696111,0.099457,9.70197
1775801474840636130,-0.696111,0.099457,9.70197
1775801474841952749,-0.811575,0.189753,9.70806
1775801474842694229,-0.811575,0.189753,9.70806
1775801474843731593,-0.811575,0.189753,9.70806
1775801474844640365,-0.811575,0.189753,9.70806
1775801474845761217,-0.811575,0.189753,9.70806
1775801474846763867,-0.811575,0.189753,9.70806
1775801474847836868,-0.915248,0.13436,9.73063
1775801474848647549,-0.915248,0.13436,9.73063
1775801474849759729,-0.915248,0.13436,9.73063
1775801474850757096,-0.915248,0.13436,9.73063
1775801474851752140,-0.915248,0.13436,9.73063
1775801474852621776,-0.90037,0.071618,9.75046
1775801474853761433,-0.90037,0.071618,9.75046
1775801474854791158,-0.90037,0.071618,9.75046
1775801474855830421,-0.90037,0.071618,9.75046
1775801474856812308,-0.90037,0.071618,9.75046
1775801474857860044,-0.905282,0.134161,9.71088
1775801474858902868,-0.905282,0.134161,9.71088
1775801474859985990,-0.905282,0.134161,9.71088
1775801474860785043,-0.905282,0.134161,9.7,9.71088
1775801474862030883,-0.974273,0.158815,9.70621
1775801474862867653,-0.974273,0.158815,9.70621
1775801474863914160,-0.974273,0.158815,9.70621
1775801474864708027,-0.974273,0.158815,9.70621
1775801474865852651,-0.974273,0.158815,9.70621
1775801474866880120,-1.01014,0.109031,9.7717
1775801474867906383,-1.01014,0.109031,9.7717
1775801474868754937,-1.01014,0.109031,9.7717
1775801474870053476,-1.01014,0.109031,9.7717
1775801474870924754,-1.01014,0.109031,9.7717
1775801474871881272,-0.970653,0.101441,9.82998
1775801474872799475,-0.970653,0.101441,9.82998
1775801474873976876,-0.970653,0.101441,9.82998
1775801474874998694,-0.970653,0.101441,9.82998
1775801474875885314,-0.970653,0.101441,9.82998
1775801474876837788,-0.970653,0.101441,9.82998
1775801474877918465,-0.934486,0.042271,9.79111
1775801474878843316,-0.934486,0.042271,9.79111
1775801474879873245,-0.934486,0.042271,9.79111
1775801474880991988,-0.934486,0.042271,9.79111
1775801474881889238,-0.924923,-0.01186,9.78419
1775801474882967449,-0.924923,-0.01186,9.78419
1775801474883866878,-0.924923,-0.01186,9.78419
1775801474884793011,-0.924923,-0.01186,9.78419
1775801474885753990,-0.924923,-0.01186,9.78419
1775801474886822788,-0.924923,-0.01186,9.78419
1775801474887882025,-0.821076,-0.059425,9.8454
1775801474888953688,-0.821076,-0.059425,9.8454
1775801474889806699,-0.821076,-0.059425,9.8454
1775801474890836303,-0.821076,-0.059425,9.8454
1775801474891781690,-0.821076,-0.059425,9.8454
1775801474892737664,-0.765761,-0.168205,9.87457
1775801474893831344,-0.765761,-0.168205,9.87457
1775801474894902901,-0.765761,-0.168205,9.87457
1775801474895901106,-0.765761,-0.168205,9.87457
1775801474896798391,-0.675075,-0.149861,9.87824
1775801474897826650,-0.675075,-0.149861,9.87824
1775801474898796524,-0.675075,-0.149861,9.87824
1775801474899855129,-0.675075,-0.149861,9.87824
1775801474900749324,-0.675075,-0.149861,9.87824
1775801474901823806,-0.675075,-0.149861,9.87824
1775801474902851751,-0.543183,-0.086327,9.86016
1775801474903908731,-0.543183,-0.086327,9.86016
1775801474904772324,-0.543183,-0.086327,9.86016
1775801474905858744,-0.543183,-0.086327,9.86016
1775801474906910192,-0.543183,-0.086327,9.86016
1775801474907875811,-0.471791,-0.069875,9.85675
1775801474908853926,-0.471791,-0.069875,9.85675
1775801474909875162,-0.471791,-0.069875,9.85675
1775801474910808604,-0.471791,-0.069875,9.85675
1775801474911983232,-0.473454,-0.06051,9.88727
1775801474912834964,-0.473454,-0.06051,9.88727
1775801474913984721,-0.473454,-0.06051,9.88727
1775801474914815419,-0.473454,-0.06051,9.88727
1775801474915819601,-0.473454,-0.06051,9.88727
1775801474916755253,-0.473454,-0.06051,9.88727
1775801474917853093,-0.473454,-0.06051,9.88727
1775801474918871703,-0.509222,-0.089027,9.92488
1775801474920106773,-0.509222,-0.089027,9.92488
1775801474920869422,-0.509222,-0.089027,9.92488
1775801474921892642,-0.509222,-0.089027,9.92488
1775801474922935017,-0.527833,-0.135593,9.93303
1775801474923787471,-0.527833,-0.135593,9.93303
1775801474924801300,-0.527833,-0.135593,9.93303
1775801474926838102,-0.527833,-0.135593,9.93303
1775801474927024596,-0.519964,0.001098,9.93114
1775801474927870836,-0.519964,0.001098,9.93114
1775801474928802094,-0.519964,0.001098,9.93114
1775801474929843686,-0.519964,0.001098,9.93114
1775801474930725829,-0.519964,0.001098,9.93114
1775801474931895459,-0.467835,0.109538,9.91884
1775801474932778855,-0.467835,0.109538,9.91884
1775801474933899230,-0.467835,0.109538,9.91884
1775801474934737237,-0.467835,0.109538,9.91884
1775801474935765184,-0.467835,0.109538,9.91884
1775801474936750845,-0.467835,0.109538,9.91884
1775801474937667222,-0.467835,0.109538,9.91884
1775801474938824890,-0.45174,0.071878,9.87418
1775801474939778731,-0.45174,0.071878,9.87418
1775801474940618867,-0.45174,0.071878,9.87418
1775801474941811093,-0.482932,0.060467,9.8154
1775801474942748695,-0.482932,0.060467,9.8154
1775801474943682658,-0.482932,0.060467,9.8154
1775801474944617465,-0.482932,0.060467,9.8154
1775801474945816390,-0.482932,0.060467,9.8154
1775801474946768154,-0.482932,0.060467,9.8154
1775801474947832355,-0.56603,0.037168,9.82612
1775801474948618384,-0.56603,0.037168,9.82612
1775801474949832012,-0.56603,0.037168,9.82612
1775801474950671800,-0.56603,0.037168,9.82612
1775801474951797465,-0.56603,0.037168,9.82612
1775801474952615436,-0.703099,0.011706,9.85908
1775801474953680808,-0.703099,0.011706,9.85908
1775801474954669899,-0.703099,0.011706,9.85908
1775801474955676459,-0.703099,0.011706,9.85908
1775801474956652307,-0.703099,0.011706,9.85908
1775801474957673309,-0.703099,0.011706,9.85908
1775801474958682269,-0.781828,-0.036878,9.89334
1775801474959778530,-0.781828,-0.036878,9.89334
1775801474960672283,-0.781828,-0.036878,9.89334
1775801474961704970,-0.781828,-0.036878,9.89334
1775801474962700780,-0.749912,-0.113315,9.8805
1775801474963713906,-0.749912,-0.113315,9.8805
1775801474964700160,-0.749912,-0.113315,9.8805
1775801474965701414,-0.749912,-0.113315,9.8805
1775801474966685004,-0.749912,-0.113315,9.8805
1775801474967710766,-0.749912,-0.113315,9.8805
1775801474968680863,-0.68937,-0.055174,9.85489
1775801474969699193,-0.68937,-0.055174,9.85489
1775801474970734764,-0.68937,-0.055174,9.85489
1775801474971776272,-0.68937,-0.055174,9.85489
1775801474972723288,-0.68937,-0.055174,9.85489
1775801474973700976,-0.692009,0.034966,9.80126
1775801474974704944,-0.692009,0.034966,9.80126
1775801474975710030,-0.692009,0.034966,9.80126
1775801474976695725,-0.692009,0.034966,9.80126
1775801474977699952,-0.728449,0.022087,9.80941
1775801474978749025,-0.728449,0.022087,9.80941
1775801474979709851,-0.728449,0.022087,9.80941
1775801474980668598,-0.728449,0.022087,9.80941
1775801474981745893,-0.728449,0.022087,9.80941
1775801474982700068,-0.751834,-0.074071,9.86619
1775801474983730488,-0.751834,-0.074071,9.86619
1775801474984692062,-0.751834,-0.074071,9.86619
1775801474985685308,-0.751834,-0.074071,9.86619
1775801474986714582,-0.751834,-0.074071,9.86619
1775801474987722665,-0.759942,-0.04009,9.85272
1775801474988636438,-0.759942,-0.04009,9.85272
1775801474989659042,-0.759942,-0.04009,9.85272
1775801474990666544,-0.759942,-0.04009,9.85272
1775801474991678468,-0.759942,-0.04009,9.85272
1775801474992630551,-0.759942,-0.04009,9.85272
1775801474993705161,-0.679088,-0.026327,9.85033
1775801474994672374,-0.679088,-0.026327,9.85033
1775801474995651391,-0.679088,-0.026327,9.85033
1775801474996651775,-0.679088,-0.026327,9.85033
1775801474997691688,-0.656755,-0.073805,9.86885
1775801474998687010,-0.656755,-0.073805,9.86885
1775801474999708014,-0.656755,-0.073805,9.86885
1775801475000677713,-0.656755,-0.073805,9.86885
1775801475001724776,-0.656755,-0.073805,9.86885
1775801475002729930,-0.694306,-0.151473,9.86713
1775801475003722747,-0.694306,-0.151473,9.86713
1775801475004691440,-0.694306,-0.151473,9.86713
1775801475005733327,-0.694306,-0.151473,9.86713
1775801475006725069,-0.694306,-0.151473,9.86713
1775801475007727233,-0.709052,-0.184052,9.84243
1775801475008709489,-0.709052,-0.184052,9.84243
1775801475009716844,-0.709052,-0.184052,9.84243
1775801475010839931,-0.709052,-0.184052,9.84243
1775801475011754700,-0.709052,-0.184052,9.84243
1775801475012724946,-0.702012,-0.055789,9.83335
1775801475013724645,-0.702012,-0.055789,9.83335
1775801475014716776,-0.702012,-0.055789,9.83335
1775801475015844556,-0.702012,-0.055789,9.83335
1775801475017090478,-0.702012,-0.055789,9.83335
1775801475017771290,-0.646811,0.00121,9.83289
1775801475018888231,-0.646811,0.00121,9.83289
1775801475019791859,-0.646811,0.00121,9.83289
1775801475020749390,-0.646811,0.00121,9.83289
1775801475021796912,-0.646811,0.00121,9.83289
1775801475022864840,-0.617687,-0.079589,9.84125
1775801475023812784,-0.617687,-0.079589,9.84125
1775801475024767341,-0.617687,-0.079589,9.84125
1775801475025832494,-0.617687,-0.079589,9.84125
1775801475026907821,-0.617687,-0.079589,9.84125
1775801475027822219,-0.637312,-0.099024,9.82757
1775801475028901349,-0.637312,-0.099024,9.82757
1775801475029831951,-0.637312,-0.099024,9.82757
1775801475030949930,-0.637312,-0.099024,9.82757
1775801475031819771,-0.637312,-0.099024,9.82757
1775801475032928768,-0.648104,-0.038577,9.82121
1775801475033843513,-0.648104,-0.038577,9.82121
1775801475035065437,-0.648104,-0.038577,9.82121
1775801475035755907,-0.648104,-0.038577,9.82121
1775801475036888712,-0.639936,0.031768,9.79799
1775801475037695891,-0.639936,0.031768,9.79799
1775801475038783784,-0.639936,0.031768,9.79799
1775801475039790818,-0.639936,0.031768,9.79799
1775801475040801747,-0.639936,0.031768,9.79799
1775801475041807541,-0.638069,0.091447,9.77194
1775801475042878105,-0.638069,0.091447,9.77194
1775801475043729114,-0.638069,0.091447,9.77194
1775801475044858198,-0.638069,0.091447,9.77194
1775801475045857072,-0.638069,0.091447,9.77194
1775801475046909660,-0.638069,0.091447,9.77194
1775801475047820127,-0.659477,0.077164,9.73129
1775801475048825980,-0.659477,0.077164,9.73129
1775801475049804398,-0.659477,0.077164,9.73129
1775801475050883202,-0.659477,0.077164,9.73129
1775801475051859538,-0.659477,0.077164,9.73129
1775801475052820724,-0.68371,0.060715,9.71355
1775801475053845241,-0.68371,0.060715,9.71355
1775801475054821608,-0.68371,0.060715,9.71355
1775801475055809744,-0.68371,0.060715,9.71355
1775801475056805452,-0.710235,0.058924,9.7022
1775801475057823489,-0.710235,0.058924,9.7022
1775801475058954993,-0.710235,0.058924,9.7022
1775801475059822549,-0.710235,0.058924,9.7022
1775801475060883278,-0.710235,0.058924,9.7022
1775801475061860762,-0.665231,0.08368,9.67843
1775801475062963158,-0.665231,0.08368,9.67843
1775801475063898058,-0.665231,0.08368,9.67843
1775801475064894732,-0.665231,0.08368,9.67843
1775801475065768939,-0.665231,0.08368,9.67843
1775801475066942950,-0.665231,0.08368,9.67843
1775801475067786454,-0.744499,0.09553,9.65574
1775801475068916729,-0.744499,0.09553,9.65574
1775801475069847410,-0.744499,0.09553,9.65574
1775801475070891470,-0.744499,0.09553,9.65574
1775801475071843219,-0.69798,-0.060027,9.67671
1775801475072834798,-0.69798,-0.060027,9.67671
1775801475073712758,-0.69798,-0.060027,9.67671
1775801475074810038,-0.69798,-0.060027,9.67671
1775801475075836904,-0.69798,-0.060027,9.67671
1775801475076823735,-0.69798,-0.060027,9.67671
1775801475077835800,-0.71372,-0.117769,9.6822
1775801475078904970,-0.71372,-0.117769,9.6822
1775801475079799267,-0.71372,-0.117769,9.6822
1775801475080838769,-0.71372,-0.117769,9.6822
1775801475081843308,-0.71372,-0.117769,9.6822
1775801475082876848,-0.743928,-0.00994,9.68392
1775801475083790837,-0.743928,-0.00994,9.68392
1775801475084891342,-0.743928,-0.00994,9.68392
1775801475085774391,-0.743928,-0.00994,9.68392
1775801475086927064,-0.762769,0.029858,9.70891
1775801475087715670,-0.762769,0.029858,9.70891
1775801475088837269,-0.762769,0.029858,9.70891
1775801475089656353,-0.762769,0.029858,9.70891
1775801475090740016,-0.762769,0.029858,9.70891
1775801475091804621,-0.762769,0.029858,9.70891
1775801475092724162,-0.805387,0.037042,9.6894
1775801475093773775,-0.805387,0.037042,9.6894
1775801475094746525,-0.805387,0.037042,9.6894
1775801475095660442,-0.805387,0.037042,9.6894
1775801475096747891,-0.805387,0.037042,9.6894
1775801475097763656,-0.848754,0.039943,9.60588
1775801475098810058,-0.848754,0.039943,9.60588
1775801475099689564,-0.848754,0.039943,9.60588
1775801475100792098,-0.848754,0.039943,9.60588
1775801475101928885,-0.848754,0.039943,9.60588
1775801475102846702,-0.888382,0.005743,9.65808
1775801475103875717,-0.888382,0.005743,9.65808
1775801475104776785,-0.888382,0.005743,9.65808
1775801475105830345,-0.888382,0.005743,9.65808
1775801475106832343,-0.888382,0.005743,9.65808
1775801475107893067,-0.828675,0.019857,9.74971
1775801475108712552,-0.828675,0.019857,9.74971
1775801475109766678,-0.828675,0.019857,9.74971
1775801475110683392,-0.828675,0.019857,9.74971
1775801475111707351,-0.828675,0.019857,9.74971
1775801475112660795,-0.765278,-0.046836,9.74205
1775801475113794203,-0.765278,-0.046836,9.74205
1775801475114796066,-0.765278,-0.046836,9.74205
1775801475115660074,-0.765278,-0.046836,9.74205
1775801475116641565,-0.765278,-0.046836,9.74205
1775801475117755214,-0.687951,-0.100529,9.74367
1775801475118800987,-0.687951,-0.100529,9.74367
1775801475119783733,-0.687951,-0.100529,9.74367
1775801475120739117,-0.687951,-0.100529,9.74367
1775801475121745730,-0.687951,-0.100529,9.74367
1775801475122727861,-0.680202,-0.091669,9.75885
1775801475123811876,-0.680202,-0.091669,9.75885
1775801475124716807,-0.680202,-0.091669,9.75885
1775801475125787394,-0.680202,-0.091669,9.75885
1775801475126644432,-0.680202,-0.091669,9.75885
1775801475127723821,-0.695906,-0.063958,9.74169
1775801475128616930,-0.695906,-0.063958,9.74169
1775801475129723252,-0.695906,-0.063958,9.74169
1775801475130737891,-0.695906,-0.063958,9.74169
1775801475131736089,-0.695906,-0.063958,9.74169
1775801475132647168,-0.695906,-0.063958,9.74169
1775801475133639134,-0.632485,-0.019141,9.72559
1775801475134650916,-0.632485,-0.019141,9.72559
1775801475135772846,-0.632485,-0.019141,9.72559
1775801475136613355,-0.632485,-0.019141,9.72559
1775801475137739214,-0.694013,-0.01073,9.72745
1775801475138739904,-0.694013,-0.01073,9.72745
1775801475139617816,-0.694013,-0.01073,9.72745
1775801475140606704,-0.694013,-0.01073,9.72745
1775801475141734210,-0.694013,-0.01073,9.72745
1775801475142720553,-0.628028,0.00934,9.76696
1775801475143706259,-0.628028,0.00934,9.76696
1775801475144727957,-0.628028,0.00934,9.76696
1775801475145592732,-0.628028,0.00934,9.76696
1775801475146626442,-0.628028,0.00934,9.76696
1775801475147618175,-0.628028,0.00934,9.76696
1775801475148637766,-0.567238,-0.015173,9.81491
1775801475149727923,-0.567238,-0.015173,9.81491
1775801475150689968,-0.567238,-0.015173,9.81491
1775801475151766521,-0.567238,-0.015173,9.81491
1775801475152734464,-0.480507,-0.010124,9.80091
1775801475153695996,-0.480507,-0.010124,9.80091
1775801475154693146,-0.480507,-0.010124,9.80091
1775801475155677894,-0.480507,-0.010124,9.80091
1775801475156696160,-0.480507,-0.010124,9.80091
1775801475157706198,-0.466716,0.039723,9.76659
1775801475158740209,-0.466716,0.039723,9.76659
1775801475159686627,-0.466716,0.039723,9.76659
1775801475160739151,-0.466716,0.039723,9.76659
1775801475161716627,-0.466716,0.039723,9.76659
1775801475162708980,-0.558679,0.052695,9.76915
1775801475163671574,-0.558679,0.052695,9.76915
1775801475164694672,-0.558679,0.052695,9.76915
1775801475165644351,-0.558679,0.052695,9.76915
1775801475166702878,-0.558679,0.052695,9.76915
1775801475167673997,-0.605264,0.052169,9.7938
1775801475168699428,-0.605264,0.052169,9.7938
1775801475169758349,-0.605264,0.052169,9.7938
1775801475170809365,-0.605264,0.052169,9.7938
1775801475171637699,-0.605264,0.052169,9.7938
1775801475172689838,-0.572794,0.058344,9.77645
1775801475173597566,-0.572794,0.058344,9.77645
1775801475174718266,-0.572794,0.058344,9.77645
1775801475175714833,-0.572794,0.058344,9.77645
1775801475176618237,-0.572794,0.058344,9.77645
1775801475177734776,-0.548686,0.113723,9.77046
1775801475178857896,-0.548686,0.113723,9.77046
1775801475179587502,-0.548686,0.113723,9.77046
1775801475180619751,-0.548686,0.113723,9.77046
1775801475181544674,-0.548686,0.113723,9.77046
1775801475182639132,-0.526468,0.141988,9.81735
1775801475183631371,-0.526468,0.141988,9.81735
1775801475184671625,-0.526468,0.141988,9.81735
1775801475185776614,-0.526468,0.141988,9.81735
1775801475186836052,-0.526468,0.141988,9.81735
1775801475187811510,-0.588752,0.072979,9.81737
1775801475188649594,-0.588752,0.072979,9.81737
1775801475189825212,-0.588752,0.072979,9.81737
1775801475190732879,-0.588752,0.072979,9.81737
1775801475191702588,-0.588752,0.072979,9.81737
1775801475192779967,-0.691708,0.002182,9.8087
1775801475193616846,-0.691708,0.002182,9.8087
1775801475194693628,-0.691708,0.002182,9.8087
1775801475195793101,-0.691708,0.002182,9.8087
1775801475196608392,-0.720314,-0.000913,9.79769
1775801475197847264,-0.720314,-0.000913,9.79769
1775801475198946427,-0.720314,-0.000913,9.79769
1775801475199765894,-0.720314,-0.000913,9.79769
1775801475200731064,-0.720314,-0.000913,9.79769
1775801475201779703,-0.720314,-0.000913,9.79769
1775801475202892361,-0.692591,-0.019177,9.81254
1775801475203903052,-0.692591,-0.019177,9.81254
1775801475204788274,-0.692591,-0.019177,9.81254
1775801475205814195,-0.692591,-0.019177,9.81254
1775801475206822613,-0.692591,-0.019177,9.81254
1775801475207745986,-0.670897,-0.010792,9.82953
1775801475208735677,-0.670897,-0.010792,9.82953
1775801475209842031,-0.670897,-0.010792,9.82953
1775801475210886812,-0.670897,-0.010792,9.82953
1775801475211859362,-0.670897,-0.010792,9.82953
1775801475212631105,-0.658656,-0.070106,9.86189
1775801475213740738,-0.658656,-0.070106,9.86189
1775801475214681685,-0.658656,-0.070106,9.86189
1775801475215776654,-0.658656,-0.070106,9.86189
1775801475216616284,-0.658656,-0.070106,9.86189
1775801475217673689,-0.632684,-0.17588,9.90031
1775801475218630267,-0.632684,-0.17588,9.90031
1775801475219630180,-0.632684,-0.17588,9.90031
1775801475220591388,-0.632684,-0.17588,9.90031
1775801475221598122,-0.632684,-0.17588,9.90031
1775801475222658887,-0.618651,-0.161522,9.92882
1775801475223582082,-0.618651,-0.161522,9.92882
1775801475224569082,-0.618651,-0.161522,9.92882
1775801475225614360,-0.618651,-0.161522,9.92882
1775801475226587509,-0.618651,-0.161522,9.92882
1775801475227564944,-0.618651,-0.161522,9.92882
1775801475228565027,-0.582773,-0.099301,9.89678
1775801475229668511,-0.582773,-0.099301,9.89678
1775801475230669769,-0.582773,-0.099301,9.89678
1775801475231633030,-0.582773,-0.099301,9.89678
1775801475232558590,-0.582773,-0.099301,9.89678
1775801475233610704,-0.599292,-0.081944,9.91682
1775801475234616650,-0.599292,-0.081944,9.91682
1775801475235616794,-0.599292,-0.081944,9.91682
1775801475236560776,-0.599292,-0.081944,9.91682
1775801475237655689,-0.638115,-0.098339,9.96032
1775801475238648507,-0.638115,-0.098339,9.96032
1775801475239617386,-0.638115,-0.098339,9.96032
1775801475240563667,-0.638115,-0.098339,9.96032
1775801475241626288,-0.638115,-0.098339,9.96032
1775801475242653961,-0.67356,-0.137275,9.97012
1775801475243637293,-0.67356,-0.137275,9.97012
1775801475244632071,-0.67356,-0.137275,9.97012
1775801475245650559,-0.67356,-0.137275,9.97012
1775801475246642575,-0.67356,-0.137275,9.97012
1775801475247638827,-0.67356,-0.137275,9.97012
1775801475248630927,-0.54353,-0.082122,9.92838
1775801475249630486,-0.54353,-0.082122,9.92838
1775801475250628864,-0.54353,-0.082122,9.92838
1775801475251672422,-0.54353,-0.082122,9.92838
1775801475252601395,-0.489798,-0.027576,9.88866
1775801475253651253,-0.489798,-0.027576,9.88866
1775801475254661719,-0.489798,-0.027576,9.88866
1775801475255654278,-0.489798,-0.027576,9.88866
1775801475256619453,-0.489798,-0.027576,9.88866
1775801475257703388,-0.503464,0.012183,9.9196
1775801475258695840,-0.503464,0.012183,9.9196
1775801475259687123,-0.503464,0.012183,9.9196
1775801475260668747,-0.503464,0.012183,9.9196
1775801475261703941,-0.503464,0.012183,9.9196
1775801475262695028,-0.486633,0.004044,9.93136
1775801475263671987,-0.486633,0.004044,9.93136
1775801475264687154,-0.486633,0.004044,9.93136
1775801475265683669,-0.486633,0.004044,9.93136
1775801475266735486,-0.529772,-0.007937,9.90253
1775801475267735120,-0.529772,-0.007937,9.90253
1775801475268795524,-0.529772,-0.007937,9.90253
1775801475269727997,-0.529772,-0.007937,9.90253
1775801475270800994,-0.529772,-0.007937,9.90253
1775801475271696552,-0.592174,-0.072275,9.87483
1775801475272664198,-0.592174,-0.072275,9.87483
1775801475273704032,-0.592174,-0.072275,9.87483
1775801475274738374,-0.592174,-0.072275,9.87483
1775801475275704381,-0.592174,-0.072275,9.87483
1775801475276681925,-0.592174,-0.072275,9.87483
1775801475277734280,-0.617158,-0.119128,9.90277
1775801475278741217,-0.617158,-0.119128,9.90277
1775801475279755610,-0.617158,-0.119128,9.90277
1775801475280761844,-0.617158,-0.119128,9.90277
1775801475281750459,-0.577151,-0.062856,9.88949
1775801475282746867,-0.577151,-0.062856,9.88949
1775801475283730179,-0.577151,-0.062856,9.88949
1775801475284809693,-0.577151,-0.062856,9.88949
1775801475285745148,-0.577151,-0.062856,9.88949
1775801475286939057,-0.577151,-0.062856,9.88949
1775801475287717621,-0.5328,0.01812,9.85677
1775801475288795646,-0.5328,0.01812,9.85677
1775801475289805967,-0.5328,0.01812,9.85677
1775801475290832208,-0.5328,0.01812,9.85677
1775801475291910170,-0.480723,0.0518,9.83179
1775801475292744588,-0.480723,0.0518,9.83179
1775801475293832662,-0.480723,0.0518,9.83179
1775801475294688894,-0.480723,0.0518,9.83179
1775801475295861877,-0.480723,0.0518,9.83179
1775801475296674422,-0.480723,0.0518,9.83179
1775801475297814586,-0.480723,0.0518,9.83179
1775801475298707618,-0.473707,0.020452,9.82957
1775801475299689541,-0.473707,0.020452,9.82957
1775801475300716495,-0.473707,0.020452,9.82957
1775801475301723638,-0.473707,0.020452,9.82957
1775801475302814175,-0.574272,0.032885,9.78871
1775801475303719978,-0.574272,0.032885,9.78871
1775801475304712261,-0.574272,0.032885,9.78871
1775801475305703116,-0.574272,0.032885,9.78871
1775801475306717184,-0.574272,0.032885,9.78871
1775801475307703774,-0.574272,0.032885,9.78871
1775801475308693888,-0.684343,0.171708,9.76429
1775801475309730064,-0.684343,0.171708,9.76429
1775801475310720528,-0.684343,0.171708,9.76429
1775801475311731454,-0.684343,0.171708,9.76429
1775801475312688947,-0.684343,0.171708,9.76429
1775801475313754203,-0.722312,0.197287,9.79097
1775801475314738992,-0.722312,0.197287,9.79097
1775801475315736515,-0.722312,0.197287,9.79097
1775801475316729605,-0.722312,0.197287,9.79097
1775801475317731502,-0.740363,0.080264,9.77503
1775801475318852090,-0.740363,0.080264,9.77503
1775801475319730200,-0.740363,0.080264,9.77503
1775801475320705200,-0.740363,0.080264,9.77503
1775801475321728483,-0.740363,0.080264,9.77503
1775801475322738009,-0.727893,0.000513,9.741
1775801475323727404,-0.727893,0.000513,9.741
1775801475324722637,-0.727893,0.000513,9.741
1775801475325790971,-0.727893,0.000513,9.741
1775801475326725699,-0.727893,0.000513,9.741
1775801475327722544,-0.699491,-0.049371,9.75624
1775801475328703140,-0.699491,-0.049371,9.75624
1775801475329734953,-0.699491,-0.049371,9.75624
1775801475330733824,-0.699491,-0.049371,9.75624
1775801475331731798,-0.699491,-0.049371,9.75624
1775801475332739341,-0.675893,-0.083211,9.76323
1775801475333751332,-0.675893,-0.083211,9.76323
1775801475334724238,-0.675893,-0.083211,9.76323
1775801475335737557,-0.675893,-0.083211,9.76323
1775801475336688355,-0.675893,-0.083211,9.76323
1775801475337698209,-0.645238,-0.103773,9.76371
1775801475338701017,-0.645238,-0.103773,9.76371
1775801475339676720,-0.645238,-0.103773,9.76371
1775801475340644044,-0.645238,-0.103773,9.76371
1775801475341678301,-0.645238,-0.103773,9.76371
1775801475342691036,-0.630265,-0.099152,9.74699
1775801475343681916,-0.630265,-0.099152,9.74699
1775801475344658928,-0.630265,-0.099152,9.74699
1775801475345703832,-0.630265,-0.099152,9.74699
1775801475346701369,-0.630265,-0.099152,9.74699
1775801475347694239,-0.658887,-0.006378,9.77239
1775801475348680953,-0.658887,-0.006378,9.77239
1775801475349718621,-0.658887,-0.006378,9.77239
1775801475350724198,-0.658887,-0.006378,9.77239
1775801475351719407,-0.658887,-0.006378,9.77239
1775801475352683483,-0.657483,0.093995,9.78137
1775801475353794859,-0.657483,0.093995,9.78137
1775801475354720441,-0.657483,0.093995,9.78137
1775801475355731420,-0.657483,0.093995,9.78137
1775801475356679703,-0.657483,0.093995,9.78137
1775801475357713949,-0.632207,0.061514,9.76081
1775801475358698359,-0.632207,0.061514,9.76081
1775801475359700240,-0.632207,0.061514,9.76081
1775801475360670258,-0.632207,0.061514,9.76081
1775801475361700264,-0.632207,0.061514,9.76081
1775801475362698981,-0.611951,0.006531,9.73574
1775801475363711017,-0.611951,0.006531,9.73574
1775801475364678037,-0.611951,0.006531,9.73574
1775801475365727995,-0.611951,0.006531,9.73574
1775801475366728700,-0.611951,0.006531,9.73574
1775801475367720932,-0.58685,0.00065,9.72789
1775801475368678916,-0.58685,0.00065,9.72789
1775801475369678893,-0.58685,0.00065,9.72789
1775801475370678426,-0.58685,0.00065,9.72789
1775801475371681140,-0.58685,0.00065,9.72789
1775801475372656412,-0.605342,-0.000407,9.71825
1775801475373674163,-0.605342,-0.000407,9.71825
1775801475374680625,-0.605342,-0.000407,9.71825
1775801475375717438,-0.605342,-0.000407,9.71825
1775801475376743622,-0.605342,-0.000407,9.71825
1775801475377721614,-0.534988,0.052916,9.75795
1775801475378717136,-0.534988,0.052916,9.75795
1775801475379725667,-0.534988,0.052916,9.75795
1775801475380704176,-0.534988,0.052916,9.75795
1775801475381772475,-0.534988,0.052916,9.75795
1775801475382790315,-0.433223,0.104526,9.73834
1775801475383719990,-0.433223,0.104526,9.73834
1775801475384690746,-0.433223,0.104526,9.73834
1775801475385719945,-0.433223,0.104526,9.73834
1775801475386688929,-0.489681,0.166751,9.64883
1775801475387685559,-0.489681,0.166751,9.64883
1775801475388650615,-0.489681,0.166751,9.64883
1775801475389681037,-0.489681,0.166751,9.64883
1775801475390673462,-0.489681,0.166751,9.64883
1775801475391661721,-0.489681,0.166751,9.64883
1775801475392650513,-0.524777,0.114803,9.7268
1775801475393701906,-0.524777,0.114803,9.7268
1775801475394737558,-0.524777,0.114803,9.7268
1775801475395698022,-0.524777,0.114803,9.7268
1775801475396691371,-0.494168,0.061287,9.7737
1775801475397729015,-0.494168,0.061287,9.7737
1775801475398716710,-0.494168,0.061287,9.7737
1775801475399707954,-0.494168,0.061287,9.7737
1775801475400895553,-0.494168,0.061287,9.7737
1775801475401725833,-0.494168,0.061287,9.7737
1775801475402844087,-0.576283,0.159499,9.66827
1775801475403778793,-0.576283,0.159499,9.66827
1775801475404780456,-0.576283,0.159499,9.66827
1775801475405762231,-0.576283,0.159499,9.66827
1775801475406738068,-0.576283,0.159499,9.66827
1775801475407751921,-0.6245,0.279923,9.6115
1775801475408770380,-0.6245,0.279923,9.6115
1775801475409769095,-0.6245,0.279923,9.6115
1775801475410852673,-0.6245,0.279923,9.6115
1775801475411753818,-0.6245,0.279923,9.6115
1775801475412794059,-0.582211,0.061063,9.68548
1775801475413781095,-0.582211,0.061063,9.68548
1775801475414786746,-0.582211,0.061063,9.68548
1775801475416015086,-0.582211,0.061063,9.68548
1775801475416706442,-0.582211,0.061063,9.68548
1775801475417927092,-0.571511,-0.194745,9.74484
1775801475418691026,-0.571511,-0.194745,9.74484
1775801475419819853,-0.571511,-0.194745,9.74484
1775801475420651331,-0.571511,-0.194745,9.74484
1775801475421908262,-0.571511,-0.194745,9.74484
1775801475422699721,-0.57316,-0.178183,9.6669
1775801475423919144,-0.57316,-0.178183,9.6669
1775801475424641326,-0.57316,-0.178183,9.6669
1775801475425862768,-0.57316,-0.178183,9.6669
1775801475426918820,-0.5869,-0.064569,9.69502
1775801475427823983,-0.5869,-0.064569,9.69502
1775801475428735237,-0.5869,-0.064569,9.69502
1775801475429736699,-0.5869,-0.064569,9.69502
1775801475430797957,-0.5869,-0.064569,9.69502
1775801475431747766,-0.5869,-0.064569,9.69502
1775801475432793768,-0.54804,-0.079256,9.75266
1775801475433750799,-0.54804,-0.079256,9.75266
1775801475434816579,-0.54804,-0.079256,9.75266
1775801475435740476,-0.54804,-0.079256,9.75266
1775801475436794509,-0.54804,-0.079256,9.75266
1775801475437761491,-0.523136,-0.1303,9.75325
1775801475438796194,-0.523136,-0.1303,9.75325
1775801475439727211,-0.523136,-0.1303,9.75325
1775801475440671472,-0.523136,-0.1303,9.75325
1775801475441699732,-0.523136,-0.1303,9.75325
1775801475442806524,-0.579619,-0.168156,9.71095
1775801475443739808,-0.579619,-0.168156,9.71095
1775801475444683612,-0.579619,-0.168156,9.71095
1775801475445713277,-0.579619,-0.168156,9.71095
1775801475446821647,-0.636453,-0.16906,9.706
1775801475447757190,-0.636453,-0.16906,9.706
1775801475448821799,-0.636453,-0.16906,9.706
1775801475449758349,-0.636453,-0.16906,9.706
1775801475450837765,-0.636453,-0.16906,9.706
1775801475451762572,-0.636453,-0.16906,9.706
1775801475452913623,-0.689121,-0.099353,9.78043
1775801475454145601,-0.689121,-0.099353,9.78043
1775801475454859751,-0.689121,-0.099353,9.78043
1775801475455690324,-0.689121,-0.099353,9.78043
1775801475456713415,-0.689121,-0.099353,9.78043
1775801475457752011,-0.689121,-0.099353,9.78043
1775801475458821577,-0.724338,0.04182,9.78752
1775801475459754345,-0.724338,0.04182,9.78752
1775801475460840883,-0.724338,0.04182,9.78752
1775801475461791295,-0.706601,0.04622,9.77642
1775801475462904400,-0.706601,0.04622,9.77642
1775801475463837117,-0.706601,0.04622,9.77642
1775801475464892505,-0.706601,0.04622,9.77642
1775801475465697431,-0.706601,0.04622,9.77642
1775801475466909506,-0.629203,-0.012816,9.80894
1775801475467885866,-0.629203,-0.012816,9.80894
1775801475468778413,-0.629203,-0.012816,9.80894
1775801475469798878,-0.629203,-0.012816,9.80894
1775801475470946343,-0.629203,-0.012816,9.80894
1775801475471836949,-0.629203,-0.012816,9.80894
1775801475472731077,-0.602617,0.09528,9.89596
1775801475473741451,-0.602617,0.09528,9.89596
1775801475474703850,-0.602617,0.09528,9.89596
1775801475475722340,-0.602617,0.09528,9.89596
1775801475476734866,-0.643745,0.166609,9.88133
1775801475477714446,-0.643745,0.166609,9.88133
1775801475478837344,-0.643745,0.166609,9.88133
1775801475479716148,-0.643745,0.166609,9.88133
1775801475480692502,-0.643745,0.166609,9.88133
1775801475481702245,-0.643745,0.166609,9.88133
1775801475482717586,-0.621751,0.116665,9.84464
1775801475483692121,-0.621751,0.116665,9.84464
1775801475484749451,-0.621751,0.116665,9.84464
1775801475485721849,-0.621751,0.116665,9.84464
1775801475486728024,-0.621751,0.116665,9.84464
1775801475487701383,-0.531664,0.073774,9.85986
1775801475488857462,-0.531664,0.073774,9.85986
1775801475489791148,-0.531664,0.073774,9.85986
1775801475490867546,-0.531664,0.073774,9.85986
1775801475491814370,-0.531664,0.073774,9.85986
1775801475492662898,-0.509977,0.15685,9.91185
1775801475493677140,-0.509977,0.15685,9.91185
1775801475494681233,-0.509977,0.15685,9.91185
1775801475495714962,-0.509977,0.15685,9.91185
1775801475496651196,-0.509977,0.15685,9.91185
1775801475497739499,-0.55589,0.200866,9.89395
1775801475498674829,-0.55589,0.200866,9.89395
1775801475499646579,-0.55589,0.200866,9.89395
1775801475500676545,-0.55589,0.200866,9.89395
1775801475501773059,-0.568494,0.103265,9.8826
1775801475502745164,-0.568494,0.103265,9.8826
1775801475503727714,-0.568494,0.103265,9.8826
1775801475504722520,-0.568494,0.103265,9.8826
1775801475505720544,-0.568494,0.103265,9.8826
1775801475506757520,-0.594883,0.003544,9.88329
1775801475507745947,-0.594883,0.003544,9.88329
1775801475508729021,-0.594883,0.003544,9.88329
1775801475509720525,-0.594883,0.003544,9.88329
1775801475510755203,-0.594883,0.003544,9.88329
1775801475511755311,-0.617557,-0.038953,9.91576
1775801475512784867,-0.617557,-0.038953,9.91576
1775801475513788010,-0.617557,-0.038953,9.91576
1775801475514741517,-0.617557,-0.038953,9.91576
1775801475515742232,-0.617557,-0.038953,9.91576
1775801475516775392,-0.617557,-0.038953,9.91576
1775801475517731099,-0.589397,-0.000259,9.91846
1775801475518665533,-0.589397,-0.000259,9.91846
1775801475519747788,-0.589397,-0.000259,9.91846
1775801475520696215,-0.589397,-0.000259,9.91846
1775801475521726744,-0.533619,0.014878,9.88563
1775801475522694518,-0.533619,0.014878,9.88563
1775801475523747208,-0.533619,0.014878,9.88563
1775801475524713683,-0.533619,0.014878,9.88563
1775801475525740906,-0.533619,0.014878,9.88563
1775801475526756896,-0.514908,-0.096824,9.87134
1775801475527743321,-0.514908,-0.096824,9.87134
1775801475528750607,-0.514908,-0.096824,9.87134
1775801475529749650,-0.514908,-0.096824,9.87134
1775801475530765526,-0.514908,-0.096824,9.87134
1775801475531720814,-0.514908,-0.096824,9.87134
1775801475532694548,-0.508706,-0.121773,9.89253
1775801475533734261,-0.508706,-0.121773,9.89253
1775801475534775128,-0.508706,-0.121773,9.89253
1775801475535718488,-0.508706,-0.121773,9.89253
1775801475536680140,-0.508706,-0.121773,9.89253
1775801475537688333,-0.499701,-0.060353,9.88147
1775801475538673558,-0.499701,-0.060353,9.88147
1775801475539688215,-0.499701,-0.060353,9.88147
1775801475540639114,-0.499701,-0.060353,9.88147
1775801475541701067,-0.499701,-0.060353,9.88147
1775801475542679637,-0.496858,-0.057888,9.86365
1775801475543705843,-0.496858,-0.057888,9.86365
1775801475544674671,-0.496858,-0.057888,9.86365
1775801475545727225,-0.496858,-0.057888,9.86365
1775801475546753152,-0.496858,-0.057888,9.86365
1775801475547725545,-0.504635,-0.048667,9.86501
1775801475548693834,-0.504635,-0.048667,9.86501
1775801475549742409,-0.504635,-0.048667,9.86501
1775801475550783924,-0.504635,-0.048667,9.86501
1775801475551746277,-0.504635,-0.048667,9.86501
1775801475552695772,-0.448825,-0.156738,9.88544
1775801475553735881,-0.448825,-0.156738,9.88544
1775801475554712845,-0.448825,-0.156738,9.88544
1775801475555721991,-0.448825,-0.156738,9.88544
1775801475556711532,-0.448825,-0.156738,9.88544
1775801475557796,-0,-0.44209,-0.234004,9.87957
1775801475558744944,-0.44209,-0.234004,9.87957
1775801475559736488,-0.44209,-0.234004,9.87957
1775801475560695844,-0.44209,-0.234004,9.87957
1775801475561722752,-0.543126,-0.055141,9.86307
1775801475562784947,-0.543126,-0.055141,9.86307
1775801475563741618,-0.543126,-0.055141,9.86307
1775801475564735198,-0.543126,-0.055141,9.86307
1775801475565728073,-0.543126,-0.055141,9.86307
1775801475566775659,-0.618071,0.012452,9.87525
1775801475567754409,-0.618071,0.012452,9.87525
1775801475568745587,-0.618071,0.012452,9.87525
1775801475569755945,-0.618071,0.012452,9.87525
1775801475570807414,-0.618071,0.012452,9.87525
1775801475571701012,-0.618202,-0.038994,9.89048
1775801475572730209,-0.618202,-0.038994,9.89048
1775801475573731005,-0.618202,-0.038994,9.89048
1775801475574741757,-0.618202,-0.038994,9.89048
1775801475575732466,-0.618202,-0.038994,9.89048
1775801475576746765,-0.666748,0.065204,9.87969
1775801475577712819,-0.666748,0.065204,9.87969
1775801475578749126,-0.666748,0.065204,9.87969
1775801475579742340,-0.666748,0.065204,9.87969
1775801475580739615,-0.666748,0.065204,9.87969
1775801475581698616,-0.666748,0.065204,9.87969
1775801475582694742,-0.714744,0.130268,9.87924
1775801475583833716,-0.714744,0.130268,9.87924
1775801475584639587,-0.714744,0.130268,9.87924
1775801475585803734,-0.714744,0.130268,9.87924
1775801475586709334,-0.714744,0.130268,9.87924
1775801475587784407,-0.6349,0.143549,9.88979
1775801475588656846,-0.6349,0.143549,9.88979
1775801475589810144,-0.6349,0.143549,9.88979
1775801475590774954,-0.6349,0.143549,9.88979
1775801475591821262,-0.6349,0.143549,9.88979
1775801475592658538,-0.54345,0.135193,9.8606
1775801475593867805,-0.54345,0.135193,9.8606
1775801475594692550,-0.54345,0.135193,9.8606
1775801475595747708,-0.54345,0.135193,9.8606
1775801475596692196,-0.560078,0.146435,9.83859
1775801475597725530,-0.560078,0.146435,9.83859
1775801475598715185,-0.560078,0.146435,9.83859
1775801475599700856,-0.560078,0.146435,9.83859
1775801475600695035,-0.560078,0.146435,9.83859
1775801475601702607,-0.560078,0.146435,9.83859
1775801475602726466,-0.550254,0.121766,9.83318
1775801475603729038,-0.550254,0.121766,9.83318
1775801475604692353,-0.550254,0.121766,9.83318
1775801475605737829,-0.550254,0.121766,9.83318
1775801475606706638,-0.550254,0.121766,9.83318
1775801475607796738,-0.588863,0.086574,9.81729
1775801475608718474,-0.588863,0.086574,9.81729
1775801475609749750,-0.588863,0.086574,9.81729
1775801475610732045,-0.588863,0.086574,9.81729
1775801475611802479,-0.633106,0.119607,9.82052
1775801475612698324,-0.633106,0.119607,9.82052
1775801475613732794,-0.633106,0.119607,9.82052
1775801475614748808,-0.633106,0.119607,9.82052
1775801475615765054,-0.633106,0.119607,9.82052
1775801475616725782,-0.613297,0.136187,9.8291
1775801475617764372,-0.613297,0.136187,9.8291
1775801475618729435,-0.613297,0.136187,9.8291
1775801475619751776,-0.613297,0.136187,9.8291
1775801475620723916,-0.613297,0.136187,9.8291
1775801475621725219,-0.599118,0.028283,9.81412
1775801475622951494,-0.599118,0.028283,9.81412
1775801475623812216,-0.599118,0.028283,9.81412
1775801475624806964,-0.599118,0.028283,9.81412
1775801475625738317,-0.599118,0.028283,9.81412
1775801475626760315,-0.571811,-0.08783,9.81354
1775801475627736508,-0.571811,-0.08783,9.81354
1775801475628822833,-0.571811,-0.08783,9.81354
1775801475629786589,-0.571811,-0.08783,9.81354
1775801475630812715,-0.571811,-0.08783,9.81354
1775801475631730740,-0.571811,-0.08783,9.81354
1775801475632721092,-0.546958,-0.091646,9.79662
1775801475633733472,-0.546958,-0.091646,9.79662
1775801475634719095,-0.546958,-0.091646,9.79662
1775801475635700581,-0.546958,-0.091646,9.79662
1775801475636670154,-0.481815,-0.035012,9.76456
1775801475637665302,-0.481815,-0.035012,9.76456
1775801475638675659,-0.481815,-0.035012,9.76456
1775801475639671847,-0.481815,-0.035012,9.76456
1775801475640656300,-0.481815,-0.035012,9.76456
1775801475641674054,-0.481815,-0.035012,9.76456
1775801475642681957,-0.416457,-0.019649,9.75128
1775801475643741713,-0.416457,-0.019649,9.75128
1775801475644670764,-0.416457,-0.019649,9.75128
1775801475645697187,-0.416457,-0.019649,9.75128
1775801475646705441,-0.416457,-0.019649,9.75128
1775801475647711743,-0.398682,-0.09612,9.75435
1775801475648667929,-0.398682,-0.09612,9.75435
1775801475649686150,-0.398682,-0.09612,9.75435
1775801475650723057,-0.398682,-0.09612,9.75435
1775801475651702149,-0.398682,-0.09612,9.75435
1775801475652753656,-0.432804,-0.164649,9.72062
1775801475653730850,-0.432804,-0.164649,9.72062
1775801475654714592,-0.432804,-0.164649,9.72062
1775801475655721258,-0.432804,-0.164649,9.72062
1775801475656685409,-0.432804,-0.164649,9.72062
1775801475657688020,-0.487869,-0.13936,9.69613
1775801475658743179,-0.487869,-0.13936,9.69613
1775801475659727551,-0.487869,-0.13936,9.69613
1775801475660697531,-0.487869,-0.13936,9.69613
1775801475661713609,-0.487869,-0.13936,9.69613
1775801475662717592,-0.502206,-0.078891,9.67826
1775801475663720636,-0.502206,-0.078891,9.67826
1775801475664682848,-0.502206,-0.078891,9.67826
1775801475665724907,-0.502206,-0.078891,9.67826
1775801475666716343,-0.502206,-0.078891,9.67826
1775801475667778657,-0.480254,-0.041892,9.70892
1775801475668726730,-0.480254,-0.041892,9.70892
1775801475669725095,-0.480254,-0.041892,9.70892
1775801475670712531,-0.480254,-0.041892,9.70892
1775801475671728789,-0.480254,-0.041892,9.70892
1775801475672705736,-0.440663,-0.039139,9.74248
1775801475673747015,-0.440663,-0.039139,9.74248
1775801475674727911,-0.440663,-0.039139,9.74248
1775801475675719982,-0.440663,-0.039139,9.74248
1775801475676685238,-0.440663,-0.039139,9.74248
1775801475677725140,-0.445655,0.018835,9.72629
1775801475678714438,-0.445655,0.018835,9.72629
1775801475679731174,-0.445655,0.018835,9.72629
1775801475680685537,-0.445655,0.018835,9.72629
1775801475681801787,-0.445655,0.018835,9.72629
1775801475682741027,-0.493269,0.031919,9.68487
1775801475683716235,-0.493269,0.031919,9.68487
1775801475685219270,-0.493269,0.031919,9.68487
1775801475685830729,-0.493269,0.031919,9.68487
1775801475686716793,-0.493269,0.031919,9.68487
1775801475687699446,-0.508241,0.014879,9.67959
1775801475688672538,-0.508241,0.014879,9.67959
1775801475689678449,-0.508241,0.014879,9.67959
1775801475690665548,-0.508241,0.014879,9.67959
1775801475691658899,-0.508241,0.014879,9.67959
1775801475692647887,-0.529175,0.094457,9.6682
1775801475693672924,-0.529175,0.094457,9.6682
1775801475694676845,-0.529175,0.094457,9.6682
1775801475695689080,-0.529175,0.094457,9.6682
1775801475696671368,-0.529175,0.094457,9.6682
1775801475697771078,-0.575534,0.18843,9.66802
1775801475698740896,-0.575534,0.18843,9.66802
1775801475699676657,-0.575534,0.18843,9.66802
1775801475700677236,-0.575534,0.18843,9.66802
1775801475701697855,-0.575534,0.18843,9.66802
1775801475702712350,-0.611062,0.137368,9.70752
1775801475703704375,-0.611062,0.137368,9.70752
1775801475704673932,-0.611062,0.137368,9.70752
1775801475705698794,-0.611062,0.137368,9.70752
1775801475706722500,-0.611062,0.137368,9.70752
1775801475707707751,-0.632201,0.110187,9.72707
1775801475708672230,-0.632201,0.110187,9.72707
1775801475709753577,-0.632201,0.110187,9.72707
1775801475710746433,-0.632201,0.110187,9.72707
1775801475711696794,-0.632201,0.110187,9.72707
1775801475712691331,-0.621556,0.080991,9.71925
1775801475713704070,-0.621556,0.080991,9.71925
1775801475714708412,-0.621556,0.080991,9.71925
1775801475715706995,-0.621556,0.080991,9.71925
1775801475716676969,-0.621556,0.080991,9.71925
1775801475717701037,-0.598463,0.117811,9.72366
1775801475718755405,-0.598463,0.117811,9.72366
1775801475719714991,-0.598463,0.117811,9.72366
1775801475720678375,-0.598463,0.117811,9.72366
1775801475721690902,-0.598463,0.117811,9.72366
1775801475722710412,-0.564509,0.186158,9.7402
1775801475723717243,-0.564509,0.186158,9.7402
1775801475724691417,-0.564509,0.186158,9.7402
1775801475728942546,-0.527364,0.124585,9.76987
1775801475729057444,-0.527364,0.124585,9.76987
1775801475729173777,-0.527364,0.124585,9.76987
1775801475729286066,-0.527364,0.124585,9.76987
1775801475729753633,-0.527364,0.124585,9.76987
1775801475730793818,-0.527364,0.124585,9.76987
1775801475731961917,-0,-0.004,-0.004264,9.79153
1775801475732627366,-0.504314,-0.004264,9.79153
1775801475733812985,-0.504314,-0.004264,9.79153
1775801475738798990,-0.500513,-0.08894,9.78103
1775801475738930542,-0.500513,-0.08894,9.78103
1775801475739074316,-0.500513,-0.08894,9.78103
1775801475739167795,-0.500513,-0.08894,9.78103
1775801475739248838,-0.500513,-0.08894,9.78103
1775801475739647124,-0.500513,-0.08894,9.78103
1775801475740762387,-0.500513,-0.08894,9.78103
1775801475741816041,-0.419503,-0.038354,9.76868
1775801475742863508,-0.419503,-0.038354,9.76868
1775801475743981445,-0.419503,-0.038354,9.76868
1775801475744826350,-0.419503,-0.038354,9.76868
1775801475745996862,-0.419503,-0.038354,9.76868
1775801475746878758,-0.423317,0.003341,9.81423
1775801475747959071,-0.423317,0.003341,9.81423
1775801475748825240,-0.423317,0.003341,9.81423
1775801475749878727,-0.423317,0.003341,9.81423
1775801475750891827,-0.423317,0.003341,9.81423
1775801475751838772,-0.437052,-0.093057,9.80065
1775801475752787301,-0.437052,-0.093057,9.80065
1775801475753867011,-0.437052,-0.093057,9.80065
1775801475754854080,-0.437052,-0.093057,9.80065
1775801475755792313,-0.437052,-0.093057,9.80065
1775801475756825887,-0.351797,-0.196439,9.79286
1775801475757830540,-0.351797,-0.196439,9.79286
1775801475758890236,-0.351797,-0.196439,9.79286
1775801475759828965,-0.351797,-0.196439,9.79286
1775801475760839125,-0.351797,-0.196439,9.79286
1775801475761699340,-0.351797,-0.196439,9.79286
1775801475762741538,-0.297662,-0.211707,9.8042
1775801475763700028,-0.297662,-0.211707,9.8042
1775801475764681579,-0.297662,-0.211707,9.8042
1775801475765866501,-0.297662,-0.211707,9.8042
1775801475766885883,-0.297662,-0.211707,9.8042
1775801475768152342,-0.377915,-0.070767,9.79951
1775801475768806335,-0.377915,-0.070767,9.79951
1775801475769818934,-0.377915,-0.070767,9.79951
1775801475770882059,-0.377915,-0.070767,9.79951
1775801475771819005,-0.377915,-0.070767,9.79951
1775801475772862856,-0.388955,-0.071239,9.80747
1775801475773897877,-0.388955,-0.071239,9.80747
1775801475774901330,-0.388955,-0.071239,9.80747
1775801475775815575,-0.388955,-0.071239,9.80747
1775801475776910098,-0.408649,-0.25136,9.80557
1775801475777825851,-0.408649,-0.25136,9.80557
1775801475778903518,-0.408649,-0.25136,9.80557
1775801475779829939,-0.408649,-0.25136,9.80557
1775801475780853764,-0.408649,-0.25136,9.80557
1775801475781831064,-0.429457,-0.279417,9.83083
1775801475782972262,-0.429457,-0.279417,9.83083
1775801475784019405,-0.429457,-0.279417,9.83083
1775801475784801241,-0.429457,-0.279417,9.83083
1775801475785776706,-0.429457,-0.279417,9.83083
1775801475786825892,-0.429457,-0.279417,9.83083
1775801475787761149,-0.440381,-0.183426,9.84339
1775801475788991137,-0.440381,-0.183426,9.84339
1775801475789710341,-0.440381,-0.183426,9.84339
1775801475790737816,-0.440381,-0.183426,9.84339
1775801475791814687,-0.501731,-0.112995,9.80267
1775801475792808343,-0.501731,-0.112995,9.80267
1775801475793792856,-0.501731,-0.112995,9.80267
1775801475794836137,-0.501731,-0.112995,9.80267
1775801475795786618,-0.501731,-0.112995,9.80267
1775801475796860963,-0.628177,-0.0473,9.83437
1775801475797800628,-0.628177,-0.0473,9.83437
1775801475798883708,-0.628177,-0.0473,9.83437
1775801475799707982,-0.628177,-0.0473,9.83437
1775801475800883131,-0.628177,-0.0473,9.83437
1775801475801755761,-0.628177,-0.0473,9.83437
1775801475802738874,-0.628177,-0.0473,9.83437
1775801475803728796,-0.652408,-0.010315,9.88632
1775801475804877222,-0.652408,-0.010315,9.88632
1775801475805760545,-0.652408,-0.010315,9.88632
1775801475807006027,-0.634054,0.058545,9.85703
1775801475807675881,-0.634054,0.058545,9.85703
1775801475808755840,-0.634054,0.058545,9.85703
1775801475809750050,-0.634054,0.058545,9.85703
1775801475810755046,-0.634054,0.058545,9.85703
1775801475811763076,-0.634054,0.058545,9.85703
1775801475812861893,-0.589182,0.098265,9.81581
1775801475813789341,-0.589182,0.098265,9.81581
1775801475814867916,-0.589182,0.098265,9.81581
1775801475815789984,-0.589182,0.098265,9.81581
1775801475816899434,-0.52187,0.024663,9.84713
1775801475817910661,-0.52187,0.024663,9.84713
1775801475818878458,-0.52187,0.024663,9.84713
1775801475819784091,-0.52187,0.024663,9.84713
1775801475820844081,-0.52187,0.024663,9.84713
1775801475821736906,-0.497046,0.029824,9.86002
1775801475822810735,-0.497046,0.029824,9.86002
1775801475823735290,-0.497046,0.029824,9.86002
1775801475824789857,-0.497046,0.029824,9.86002
1775801475825891415,-0.497046,0.029824,9.86002
1775801475826821042,-0.484174,0.164132,9.88851
1775801475827801696,-0.484174,0.164132,9.88851
1775801475828801915,-0.484174,0.164132,9.88851
1775801475829839652,-0.484174,0.164132,9.88851
1775801475830805486,-0.484174,0.164132,9.88851
1775801475831997077,-0.450075,0.167089,9.88858
1775801475833021068,-0.450075,0.167089,9.88858
1775801475833873795,-0.450075,0.167089,9.88858
1775801475834804913,-0.450075,0.167089,9.88858
1775801475835743259,-0.450075,0.167089,9.88858
1775801475836739420,-0.450075,0.167089,9.88858
1775801475837857035,-0.450075,0.167089,9.88858
1775801475838808546,-0.461708,0.05783,9.91404
1775801475839775763,-0.461708,0.05783,9.91404
1775801475840786808,-0.461708,0.05783,9.91404
1775801475841799516,-0.461708,0.05783,9.91404
1775801475842853894,-0.428049,0.031258,9.94506
1775801475843818292,-0.428049,0.031258,9.94506
1775801475844916567,-0.428049,0.031258,9.94506
1775801475845746737,-0.428049,0.031258,9.94506
1775801475846905916,-0.388824,0.025633,9.91081
1775801475847719909,-0.388824,0.025633,9.91081
1775801475848725251,-0.388824,0.025633,9.91081
1775801475849856506,-0.388824,0.025633,9.91081
1775801475850909441,-0.388824,0.025633,9.91081
1775801475851947505,-0.372055,-0.055032,9.85087
1775801475852854878,-0.372055,-0.055032,9.85087
1775801475853829815,-0.372055,-0.055032,9.85087
1775801475855001705,-0.372055,-0.055032,9.85087
1775801475855868612,-0.372055,-0.055032,9.85087
1775801475856841362,-0.322738,-0.094768,9.89289
1775801475857997647,-0.322738,-0.094768,9.89289
1775801475858990347,-0.322738,-0.094768,9.89289
1775801475859847836,-0.322738,-0.094768,9.89289
1775801475860808833,-0.322738,-0.094768,9.89289
1775801475861872298,-0.355845,-0.025062,9.92963
1775801475862860798,-0.355845,-0.025062,9.92963
1775801475863878015,-0.355845,-0.025062,9.92963
1775801475864882564,-0.355845,-0.025062,9.92963
1775801475865879285,-0.355845,-0.025062,9.92963
1775801475866947282,-0.361503,0.077399,9.89762
1775801475867884781,-0.361503,0.077399,9.89762
1775801475868824625,-0.361503,0.077399,9.89762
1775801475869995955,-0.361503,0.077399,9.89762
1775801475870942314,-0.361503,0.077399,9.89762
1775801475871993954,-0.327006,0.104604,9.88153
1775801475872830202,-0.327006,0.104604,9.88153
1775801475873991394,-0.327006,0.104604,9.88153
1775801475874978124,-0.327006,0.104604,9.88153
1775801475875956490,-0.327006,0.104604,9.88153
1775801475876913967,-0.327006,0.104604,9.88153
1775801475877973261,-0.307709,0.073168,9.8889
1775801475879035977,-0.307709,0.073168,9.8889
1775801475880106774,-0.307709,0.073168,9.8889
1775801475880891441,-0.307709,0.073168,9.8889
1775801475882021701,-0.31209,0.028137,9.8802
1775801475883134566,-0.31209,0.028137,9.8802
1775801475883914393,-0.31209,0.028137,9.8802
1775801475884838998,-0.31209,0.028137,9.8802
1775801475885828251,-0.31209,0.028137,9.8802
1775801475886936066,-0.350302,0.052431,9.84724
1775801475887927360,-0.350302,0.052431,9.84724
1775801475889110813,-0.350302,0.052431,9.84724
1775801475889943708,-0.350302,0.052431,9.84724
1775801475890969258,-0.350302,0.052431,9.84724
1775801475891903923,-0.425194,0.071514,9.80627
1775801475892819073,-0.425194,0.071514,9.80627
1775801475893783186,-0.425194,0.071514,9.80627
1775801475894882110,-0.425194,0.071514,9.80627
1775801475895930946,-0.425194,0.071514,9.80627
1775801475896773127,-0.463463,0.032385,9.80753
1775801475897933944,-0.463463,0.032385,9.80753
1775801475898919538,-0.463463,0.032385,9.80753
1775801475899923566,-0.463463,0.032385,9.80753
1775801475900803595,-0.463463,0.032385,9.80753
1775801475901986427,-0.463463,0.032385,9.80753
1775801475903015900,-0.444787,-0.06342,9.82086
1775801475903938444,-0.444787,-0.06342,9.82086
1775801475904852780,-0.444787,-0.06342,9.82086
177580147590,-0.444,-0.444787,-0.06342,9.82086
1775801475906880051,-0.479518,-0.125047,9.80056
1775801475908026439,-0.479518,-0.125047,9.80056
1775801475908795951,-0.479518,-0.125047,9.80056
1775801475909983058,-0.479518,-0.125047,9.80056
1775801475910908199,-0.479518,-0.125047,9.80056
1775801475911969626,-0.479518,-0.125047,9.80056
1775801475912782251,-0.479518,-0.125047,9.80056
1775801475914065665,-0.529585,-0.079163,9.77734
1775801475914916409,-0.529585,-0.079163,9.77734
1775801475915981460,-0.529585,-0.079163,9.77734
1775801475916824099,-0.566195,0.004873,9.76649
1775801475918000892,-0.566195,0.004873,9.76649
1775801475918937235,-0.566195,0.004873,9.76649
1775801475919839452,-0.566195,0.004873,9.76649
1775801475920867095,-0.566195,0.004873,9.76649
1775801475921961074,-0.5813,0.033761,9.77239
1775801475923039981,-0.5813,0.033761,9.77239
1775801475923979939,-0.5813,0.033761,9.77239
1775801475924856148,-0.5813,0.033761,9.77239
1775801475926060907,-0.5813,0.033761,9.77239
1775801475926892033,-0.5813,0.033761,9.77239
1775801475927921027,-0.573173,0.004721,9.76796
1775801475928805064,-0.573173,0.004721,9.76796
1775801475930050935,-0.573173,0.004721,9.76796
1775801475930913167,-0.573173,0.004721,9.76796
1775801475932039517,-0.527807,0.069168,9.76126
1775801475933009923,-0.527807,0.069168,9.76126
1775801475933914524,-0.527807,0.069168,9.76126
1775801475934896377,-0.527807,0.069168,9.76126
1775801475935862527,-0.527807,0.069168,9.76126
1775801475936948360,-0.465888,0.119188,9.75516
1775801475937762411,-0.465888,0.119188,9.75516
1775801475938948876,-0.465888,0.119188,9.75516
1775801475939730748,-0.465888,0.119188,9.75516
1775801475940908092,-0.465888,0.119188,9.75516
1775801475941846922,-0.465888,0.119188,9.75516
1775801475942959548,-0.418092,0.054025,9.78593
1775801475943726496,-0.418092,0.054025,9.78593
1775801475944889828,-0.418092,0.054025,9.78593
1775801475945757080,-0.418092,0.054025,9.78593
1775801475946948367,-0.358944,0.000963,9.80018
1775801475947772749,-0.358944,0.000963,9.80018
1775801475948945024,-0.358944,0.000963,9.80018
1775801475949838523,-0.358944,0.000963,9.80018
1775801475950951510,-0.358944,0.000963,9.80018
1775801475951977088,-0.358944,0.000963,9.80018
1775801475952848419,-0.321464,0.018014,9.75701
1775801475953979223,-0.321464,0.018014,9.75701
1775801475954897520,-0.321464,0.018014,9.75701
1775801475955889492,-0.321464,0.018014,9.75701
1775801475956859656,-0.327819,0.056617,9.74377
1775801475957954308,-0.327819,0.056617,9.74377
1775801475958927413,-0.327819,0.056617,9.74377
1775801475959998101,-0.327819,0.056617,9.74377
1775801475960918906,-0.327819,0.056617,9.74377
1775801475961901284,-0.327819,0.056617,9.74377
1775801475962950325,-0.325613,-0.000492,9.80149
1775801475963968813,-0.325613,-0.000492,9.80149
1775801475964846689,-0.325613,-0.000492,9.80149
1775801475965924970,-0.325613,-0.000492,9.80149
1775801475967141667,-0.325613,-0.000492,9.80149
1775801475967906505,-0.374564,-0.043248,9.78798
1775801475968897591,-0.374564,-0.043248,9.78798
1775801475969940998,-0.374564,-0.043248,9.78798
1775801475971074810,-0.374564,-0.043248,9.78798
1775801475971888410,-0.374564,-0.043248,9.78798
1775801475972982511,-0.458019,0.021244,9.74437
1775801475973924063,-0.458019,0.021244,9.74437
1775801475975022248,-0.458019,0.021244,9.74437
1775801475975880569,-0.458019,0.021244,9.74437
1775801475976831952,-0.458019,0.021244,9.74437
1775801475977916320,-0.497009,0.029426,9.74681
1775801475978951084,-0.497009,0.029426,9.74681
1775801475979862263,-0.497009,0.029426,9.74681
1775801475980835109,-0.497009,0.029426,9.74681
1775801475982077006,-0.564304,0.003105,9.74998
1775801475983012784,-0.564304,0.003105,9.74998
1775801475983925744,-0.564304,0.003105,9.74998
1775801475984732813,-0.564304,0.003105,9.74998
1775801475985768430,-0.564304,0.003105,9.74998
1775801475986730274,-0.564304,0.003105,9.74998
1775801475987696306,-0.585756,-0.019705,9.7648
1775801475988686363,-0.585756,-0.019705,9.7648
1775801475989717539,-0.585756,-0.019705,9.7648
1775801475990725868,-0.585756,-0.019705,9.7648
1775801475991714341,-0.585756,-0.019705,9.7648
1775801475992684915,-0.573143,0.039398,9.77787
1775801475993693729,-0.573143,0.039398,9.77787
1775801475994707452,-0.573143,0.039398,9.77787
1775801475995730905,-0.573143,0.039398,9.77787
1775801475996677023,-0.573143,0.039398,9.77787
1775801475997732446,-0.573143,0.039398,9.77787
1775801475998747520,-0.564808,0.094424,9.77845
1775801475999713092,-0.564808,0.094424,9.77845
1775801476000714192,-0.564808,0.094424,9.77845
1775801476002194467,-0.555072,0.012663,9.75454
1775801476002747809,-0.555072,0.012663,9.75454
1775801476003721898,-0.555072,0.012663,9.75454
1775801476004697431,-0.555072,0.012663,9.75454
1775801476005707848,-0.555072,0.012663,9.75454
1775801476006749457,-0.555072,0.012663,9.75454
1775801476007712858,-0.547584,-0.025799,9.74902
1775801476008693773,-0.547584,-0.025799,9.74902
1775801476009716512,-0.547584,-0.025799,9.74902
1775801476010741728,-0.547584,-0.025799,9.74902
1775801476011710409,-0.547584,-0.025799,9.74902
1775801476012819712,-0.55977,0.015252,9.74243
1775801476013878900,-0.55977,0.015252,9.74243
1775801476015014827,-0.55977,0.015252,9.74243
1775801476015721915,-0.55977,0.015252,9.74243
1775801476016896397,-0.574572,0.069392,9.71976
1775801476017902683,-0.574572,0.069392,9.71976
1775801476018948772,-0.574572,0.069392,9.71976
1775801476019979003,-0.574572,0.069392,9.71976
1775801476020947171,-0.574572,0.069392,9.71976
1775801476021927418,-0.594329,0.053547,9.71575
1775801476022884210,-0.594329,0.053547,9.71575
1775801476023745388,-0.594329,0.053547,9.71575
1775801476024864437,-0.594329,0.053547,9.71575
1775801476025788834,-0.594329,0.053547,9.71575
1775801476026891509,-0.578771,-0.02812,9.73654
1775801476027932234,-0.578771,-0.02812,9.73654
1775801476028679044,-0.578771,-0.02812,9.73654
1775801476029905519,-0.578771,-0.02812,9.73654
1775801476030924837,-0.578771,-0.02812,9.73654
1775801476031785029,-0.578771,-0.02812,9.73654
1775801476032803402,-0.540282,0.087714,9.73311
1775801476033848499,-0.540282,0.087714,9.73311
1775801476034808817,-0.540282,0.087714,9.73311
1775801476035708181,-0.540282,0.087714,9.73311
1775801476036738532,-0.544925,0.129927,9.752
1775801476037824980,-0.544925,0.129927,9.752
1775801476038948763,-0.544925,0.129927,9.752
1775801476039812811,-0.544925,0.129927,9.752
1775801476040813442,-0.544925,0.129927,9.752
1775801476041886034,-0.544925,0.129927,9.752
1775801476042889245,-0.500891,-0.059752,9.78043
1775801476043859343,-0.500891,-0.059752,9.78043
1775801476044939655,-0.500891,-0.059752,9.78043
1775801476045779378,-0.500891,-0.059752,9.78043
1775801476046939386,-0.500891,-0.059752,9.78043
1775801476047715327,-0.500891,-0.059752,9.78043
1775801476048900782,-0.464727,-0.17712,9.79022
1775801476049909741,-0.464727,-0.17712,9.79022
1775801476050881948,-0.464727,-0.17712,9.79022
1775801476051786343,-0.464727,-0.17712,9.79022
1775801476052881902,-0.412641,-0.181475,9.7777
1775801476053791846,-0.412641,-0.181475,9.7777
1775801476054835349,-0.412641,-0.181475,9.7777
1775801476055749637,-0.412641,-0.181475,9.7777
1775801476056765007,-0.373438,-0.121456,9.78421
1775801476057745922,-0.373438,-0.121456,9.78421
1775801476058721098,-0.373438,-0.121456,9.78421
1775801476059741379,-0.373438,-0.121456,9.78421
1775801476060724664,-0.373438,-0.121456,9.78421
1775801476061826411,-0.373438,-0.121456,9.78421
1775801476062707820,-0.375094,-0.024625,9.79302
1775801476063712023,-0.375094,-0.024625,9.79302
1775801476064675774,-0.375094,-0.024625,9.79302
1775801476065722038,-0.375094,-0.024625,9.79302
1775801476066677153,-0.375094,-0.024625,9.79302
1775801476067786704,-0.427526,-0.054227,9.81335
1775801476068802766,-0.427526,-0.054227,9.81335
1775801476069791574,-0.427526,-0.054227,9.81335
1775801476070913393,-0.427526,-0.054227,9.81335
1775801476071822215,-0.427526,-0.054227,9.81335
1775801476072917001,-0.439734,-0.122181,9.82699
1775801476073790971,-0.439734,-0.122181,9.82699
1775801476074859780,-0.439734,-0.122181,9.82699
1775801476075759040,-0.439734,-0.122181,9.82699
1775801476076740308,-0.439734,-0.122181,9.82699
1775801476077708482,-0.439734,-0.122181,9.82699
1775801476078857470,-0.451551,-0.113567,9.8187
177580147607,-0.451,-0.451551,-0.113567,9.8187
1775801476080802634,-0.451551,-0.113567,9.8187
1775801476081744402,-0.451551,-0.113567,9.8187
1775801476082763906,-0.469414,-0.062806,9.80804
1775801476083764174,-0.469414,-0.062806,9.80804
1775801476085153281,-0.469414,-0.062806,9.80804
1775801476085722117,-0.469414,-0.062806,9.80804
1775801476086867764,-0.482451,-0.010764,9.83198
1775801476087739242,-0.482451,-0.010764,9.83198
1775801476088751838,-0.482451,-0.010764,9.83198
1775801476089794111,-0.482451,-0.010764,9.83198
1775801476090895090,-0.482451,-0.010764,9.83198
1775801476091729494,-0.482451,-0.010764,9.83198
1775801476092851593,-0.528854,-0.029804,9.86129
1775801476093767235,-0.528854,-0.029804,9.86129
1775801476094835492,-0.528854,-0.029804,9.86129
1775801476095736615,-0.528854,-0.029804,9.86129
1775801476096825941,-0.541191,-0.046139,9.87015
1775801476097765705,-0.541191,-0.046139,9.87015
1775801476098870564,-0.541191,-0.046139,9.87015
1775801476099875476,-0.541191,-0.046139,9.87015
1775801476100955309,-0.541191,-0.046139,9.87015
1775801476101815536,-0.541191,-0.046139,9.87015
1775801476102923174,-0.521458,0.035358,9.87421
1775801476103748364,-0.521458,0.035358,9.87421
1775801476104851046,-0.521458,0.035358,9.87421
1775801476105737333,-0.521458,0.035358,9.87421
1775801476106890720,-0.475593,0.036348,9.88667
1775801476107898201,-0.475593,0.036348,9.88667
1775801476108900720,-0.475593,0.036348,9.88667
1775801476109755771,-0.475593,0.036348,9.88667
1775801476110940713,-0.475593,0.036348,9.88667
1775801476111750703,-0.475593,0.036348,9.88667
1775801476112889440,-0.456057,0.036754,9.87733
1775801476113787847,-0.456057,0.036754,9.87733
1775801476114889674,-0.456057,0.036754,9.87733
1775801476115762769,-0.456057,0.036754,9.87733
1775801476116779207,-0.456057,0.036754,9.87733
1775801476118012466,-0.412109,0.073359,9.84703
1775801476118884414,-0.412109,0.073359,9.84703
1775801476119658763,-0.412109,0.073359,9.84703
1775801476120787768,-0.412109,0.073359,9.84703
1775801476121729869,-0.340845,0.098291,9.85105
1775801476122733095,-0.340845,0.098291,9.85105
1775801476123749128,-0.340845,0.098291,9.85105
1775801476124747383,-0.340845,0.098291,9.85105
1775801476125758968,-0.340845,0.098291,9.85105
1775801476126764362,-0.319821,0.13642,9.87387
1775801476127807599,-0.319821,0.13642,9.87387
1775801476128823271,-0.319821,0.13642,9.87387
1775801476129774671,-0.319821,0.13642,9.87387
1775801476130719358,-0.319821,0.13642,9.87387
1775801476131682639,-0.319821,0.13642,9.87387
1775801476132716812,-0.362877,0.161117,9.87296
1775801476133726784,-0.362877,0.161117,9.87296
1775801476134793670,-0.362877,0.161117,9.87296
1775801476135811232,-0.362877,0.161117,9.87296
1775801476136798077,-0.417997,0.078821,9.86755
1775801476137749108,-0.417997,0.078821,9.86755
1775801476138731464,-0.417997,0.078821,9.86755
1775801476139745192,-0.417997,0.078821,9.86755
1775801476140696353,-0.417997,0.078821,9.86755
1775801476141745691,-0.410383,-0.007519,9.87551
1775801476142717005,-0.410383,-0.007519,9.87551
1775801476143731141,-0.410383,-0.007519,9.87551
1775801476144730027,-0.410383,-0.007519,9.87551
1775801476145745804,-0.410383,-0.007519,9.87551
1775801476146737953,-0.334031,0.055903,9.88853
1775801476147720286,-0.334031,0.055903,9.88853
1775801476148713555,-0.334031,0.055903,9.88853
1775801476149757621,-0.334031,0.055903,9.88853
1775801476150719017,-0.334031,0.055903,9.88853
1775801476151769557,-0.260678,0.131449,9.88239
1775801476152784015,-0.260678,0.131449,9.88239
1775801476153750652,-0.260678,0.131449,9.88239
1775801476154944780,-0.260678,0.131449,9.88239
1775801476155844888,-0.260678,0.131449,9.88239
1775801476156820759,-0.289933,0.130377,9.85658
1775801476157755625,-0.289933,0.130377,9.85658
1775801476158726561,-0.289933,0.130377,9.85658
1775801476159806863,-0.289933,0.130377,9.85658
1775801476160750129,-0.289933,0.130377,9.85658
1775801476161713556,-0.35211,0.076207,9.84163
1775801476162724408,-0.35211,0.076207,9.84163
1775801476163716528,-0.35211,0.076207,9.84163
1775801476164706837,-0.35211,0.076207,9.84163
1775801476165723487,-0.35211,0.076207,9.84163
1775801476166706938,-0.35211,0.076207,9.84163
1775801476167724337,-0.452773,0.031139,9.84599
1775801476168918755,-0.452773,0.031139,9.84599
1775801476169759369,-0.452773,0.031139,9.84599
1775801476170800659,-0.452773,0.031139,9.84599
1775801476171722903,-0.452773,0.031139,9.84599
1775801476172710553,-0.460561,0.080485,9.83683
1775801476173725019,-0.460561,0.080485,9.83683
1775801476174761395,-0.460561,0.080485,9.83683
1775801476175776603,-0.460561,0.080485,9.83683
1775801476176736811,-0.460561,0.080485,9.83683
1775801476177705414,-0.400808,0.057907,9.86628
1775801476178748810,-0.400808,0.057907,9.86628
1775801476179714445,-0.400808,0.057907,9.86628
1775801476180707570,-0.400808,0.057907,9.86628
1775801476181712704,-0.400808,0.057907,9.86628
1775801476182748804,-0.325429,-0.040227,9.91809
1775801476183685204,-0.325429,-0.040227,9.91809
1775801476184939393,-0.325429,-0.040227,9.91809
1775801476185812453,-0.325429,-0.040227,9.91809
1775801476186939065,-0.305835,-0.040589,9.87443
1775801476187818671,-0.305835,-0.040589,9.87443
1775801476188829558,-0.305835,-0.040589,9.87443
1775801476189810711,-0.305835,-0.040589,9.87443
1775801476190981229,-0.305835,-0.040589,9.87443
1775801476191801754,-0.394676,0.048152,9.82928
1775801476192731194,-0.394676,0.048152,9.82928
1775801476193712418,-0.394676,0.048152,9.82928
1775801476194704631,-0.394676,0.048152,9.82928
1775801476195730334,-0.394676,0.048152,9.82928
1775801476196704289,-0.413624,0.077314,9.84348
1775801476197769531,-0.413624,0.077314,9.84348
1775801476198731994,-0.413624,0.077314,9.84348
1775801476199790669,-0.413624,0.077314,9.84348
1775801476200784224,-0.413624,0.077314,9.84348
1775801476201816432,-0.356033,-0.018928,9.85003
1775801476202717271,-0.356033,-0.018928,9.85003
1775801476203772442,-0.356033,-0.018928,9.85003
1775801476204705474,-0.356033,-0.018928,9.85003
1775801476205744428,-0.356033,-0.018928,9.85003
1775801476206717824,-0.334609,-0.061672,9.82226
1775801476207752236,-0.334609,-0.061672,9.82226
1775801476208711966,-0.334609,-0.061672,9.82226
1775801476209733416,-0.334609,-0.061672,9.82226
1775801476210736097,-0.334609,-0.061672,9.82226
1775801476211740227,-0.315518,0.004644,9.78927
1775801476212705466,-0.315518,0.004644,9.78927
1775801476213733536,-0.315518,0.004644,9.78927
1775801476214717438,-0.315518,0.004644,9.78927
1775801476215754346,-0.315518,0.004644,9.78927
1775801476216712575,-0.310157,-0.005622,9.82787
1775801476217739720,-0.310157,-0.005622,9.82787
1775801476218803769,-0.310157,-0.005622,9.82787
1775801476219731230,-0.310157,-0.005622,9.82787
1775801476220724157,-0.310157,-0.005622,9.82787
1775801476221742776,-0.310157,-0.005622,9.82787
1775801476222809429,-0.407591,-0.082769,9.84878
1775801476223825511,-0.407591,-0.082769,9.84878
1775801476224706191,-0.407591,-0.082769,9.84878
1775801476225716523,-0.407591,-0.082769,9.84878
1775801476226750085,-0.49073,-0.132822,9.81665
1775801476227747923,-0.49073,-0.132822,9.81665
1775801476228743721,-0.49073,-0.132822,9.81665
1775801476229742736,-0.49073,-0.132822,9.81665
1775801476230760846,-0.49073,-0.132822,9.81665
1775801476231747825,-0.449061,-0.083093,9.79229
1775801476232713262,-0.449061,-0.083093,9.79229
1775801476233757793,-0.449061,-0.083093,9.79229
1775801476234752565,-0.449061,-0.083093,9.79229
1775801476235812330,-0.449061,-0.083093,9.79229
1775801476236709774,-0.37293,0.07363,9.80073
1775801476237777320,-0.37293,0.07363,9.80073
1775801476238724912,-0.37293,0.07363,9.80073
1775801476239706266,-0.37293,0.07363,9.80073
1775801476240686910,-0.37293,0.07363,9.80073
1775801476241723759,-0.37293,0.07363,9.80073
1775801476242701761,-0.358225,0.126524,9.81967
1775801476243711474,-0.358225,0.126524,9.81967
1775801476244736692,-0.358225,0.126524,9.81967
1775801476245780523,-0.358225,0.126524,9.81967
1775801476246713397,-0.376526,0.082533,9.78716
1775801476247727633,-0.376526,0.082533,9.78716
1775801476248688840,-0.376526,0.082533,9.78716
1775801476249729111,-0.376526,0.082533,9.78716
1775801476250727682,-0.376526,0.082533,9.78716
1775801476251728848,-0.36621,0.059066,9.74474
1775801476252743837,-0.36621,0.059066,9.74
17
1775801476253732112,-0.36621,0.059066,9.74474
1775801476254772377,-0.36621,0.059066,9.74474
1775801476255740564,-0.36621,0.059066,9.74474
1775801476256724873,-0.368452,0.081377,9.74394
1775801476257745320,-0.368452,0.081377,9.74394
1775801476258743440,-0.368452,0.081377,9.74394
1775801476259745010,-0.368452,0.081377,9.74394
1775801476260693836,-0.368452,0.081377,9.74394
1775801476261732917,-0.368452,0.081377,9.74394
1775801476262715374,-0.356953,0.093669,9.75772
1775801476263732027,-0.356953,0.093669,9.75772
1775801476264696272,-0.356953,0.093669,9.75772
1775801476265808455,-0.356953,0.093669,9.75772
1775801476266786918,-0.315164,0.146214,9.73937
1775801476267752946,-0.315164,0.146214,9.73937
1775801476268696220,-0.315164,0.146214,9.73937
1775801476269763507,-0.315164,0.146214,9.73937
1775801476270721700,-0.315164,0.146214,9.73937
1775801476271729274,-0.315164,0.146214,9.73937
1775801476272751524,-0.263403,0.208891,9.74125
1775801476273714829,-0.263403,0.208891,9.74125
1775801476274702266,-0.263403,0.208891,9.74125
1775801476275720547,-0.263403,0.208891,9.74125
1775801476276739334,-0.271032,0.216806,9.74263
1775801476277732518,-0.271032,0.216806,9.74263
1775801476278717253,-0.271032,0.216806,9.74263
1775801476279692455,-0.271032,0.216806,9.74263
1775801476280640296,-0.271032,0.216806,9.74263
1775801476281685809,-0.271032,0.216806,9.74263
1775801476282698690,-0.334611,0.133841,9.73274
1775801476283721112,-0.334611,0.133841,9.73274
1775801476284708306,-0.334611,0.133841,9.73274
1775801476285695888,-0.334611,0.133841,9.73274
1775801476286683748,-0.394693,0.022667,9.72748
1775801476287716557,-0.394693,0.022667,9.72748
1775801476288657658,-0.394693,0.022667,9.72748
1775801476289771629,-0.394693,0.022667,9.72748
1775801476290691115,-0.394693,0.022667,9.72748
1775801476291718616,-0.394693,0.022667,9.72748
1775801476292673497,-0.428879,0.011402,9.7301
1775801476293708409,-0.428879,0.011402,9.7301
1775801476294705334,-0.428879,0.011402,9.7301
1775801476295709226,-0.428879,0.011402,9.7301
1775801476296729298,-0.473716,-0.003229,9.74168
1775801476297762429,-0.473716,-0.003229,9.74168
1775801476298759832,-0.473716,-0.003229,9.74168
1775801476299773117,-0.473716,-0.003229,9.74168
1775801476300758785,-0.473716,-0.003229,9.74168
1775801476301775243,-0.438031,-0.02749,9.73566
1775801476302725123,-0.438031,-0.02749,9.73566
1775801476303723414,-0.438031,-0.02749,9.73566
1775801476304727057,-0.438031,-0.02749,9.73566
1775801476305730262,-0.438031,-0.02749,9.73566
1775801476306712454,-0.373095,-0.057936,9.74337
1775801476307717641,-0.373095,-0.057936,9.74337
1775801476308704403,-0.373095,-0.057936,9.74337
1775801476309718238,-0.373095,-0.057936,9.74337
1775801476310765045,-0.373095,-0.057936,9.74337
1775801476311741455,-0.32769,-0.176907,9.77556
1775801476312689763,-0.32769,-0.176907,9.77556
1775801476313736987,-0.32769,-0.176907,9.77556
1775801476314719380,-0.32769,-0.176907,9.77556
1775801476315725233,-0.32769,-0.176907,9.77556
1775801476316711034,-0.381406,-0.198923,9.73843
1775801476317764550,-0.381406,-0.198923,9.73843
1775801476318728642,-0.381406,-0.198923,9.73843
1775801476319792776,-0.381406,-0.198923,9.73843
1775801476320723329,-0.381406,-0.198923,9.73843
1775801476321982605,-0.467709,-0.118441,9.72077
1775801476322837171,-0.467709,-0.118441,9.72077
1775801476323946094,-0.467709,-0.118441,9.72077
1775801476324707114,-0.467709,-0.118441,9.72077
1775801476325954594,-0.467709,-0.118441,9.72077
1775801476326817509,-0.467709,-0.118441,9.72077
1775801476327952602,-0.459429,-0.133816,9.7848
1775801476328717281,-0.459429,-0.133816,9.7848
1775801476329937379,-0.459429,-0.133816,9.7848
1775801476330830017,-0.459429,-0.133816,9.7848
1775801476332037086,-0.431736,-0.154306,9.80258
1775801476332728130,-0.431736,-0.154306,9.80258
1775801476333960662,-0.431736,-0.154306,9.80258
1775801476335183917,-0.431736,-0.154306,9.80258
1775801476335942055,-0.431736,-0.154306,9.80258
1775801476336900496,-0.444405,-0.065497,9.77362
1775801476337822372,-0.444405,-0.065497,9.77362
1775801476338843657,-0.444405,-0.065497,9.77362
1775801476339947823,-0.444405,-0.065497,9.77362
1775801476340739275,-0.444405,-0.065497,9.77362
1775801476342023573,-0.445947,0.007926,9.78121
1775801476342743005,-0.445947,0.007926,9.78121
1775801476343783802,-0.445947,0.007926,9.78121
1775801476344727601,-0.445947,0.007926,9.78121
1775801476345721157,-0.445947,0.007926,9.78121
1775801476346736279,-0.417847,0.035001,9.81488
1775801476347748137,-0.417847,0.035001,9.81488
1775801476348723158,-0.417847,0.035001,9.81488
1775801476349697602,-0.417847,0.035001,9.81488
1775801476350911263,-0.417847,0.035001,9.81488
1775801476351766623,-0.417847,0.035001,9.81488
1775801476352934790,-0.438183,0.007858,9.79218
1775801476353858893,-0.438183,0.007858,9.79218
1775801476354923001,-0.438183,0.007858,9.79218
1775801476355837013,-0.438183,0.007858,9.79218
1775801476356899284,-0.438183,0.007858,9.79218
1775801476357751843,-0.469045,-0.071644,9.76746
1775801476358865303,-0.469045,-0.071644,9.76746
1775801476359792858,-0.469045,-0.071644,9.76746
1775801476360749260,-0.469045,-0.071644,9.76746
1775801476361788604,-0.469045,-0.071644,9.76746
1775801476362856176,-0.451359,-0.0373,9.78522
1775801476363775630,-0.451359,-0.0373,9.78522
1775801476364674895,-0.451359,-0.0373,9.78522
1775801476365696877,-0.451359,-0.0373,9.78522
1775801476366765808,-0.451359,-0.0373,9.78522
1775801476367768548,-0.411332,0.042886,9.81543
1775801476368682503,-0.411332,0.042886,9.81543
1775801476369868232,-0.411332,0.042886,9.81543
1775801476370849075,-0.411332,0.042886,9.81543
1775801476371931635,-0.411332,0.042886,9.81543
1775801476372742382,-0.358127,0.076672,9.80638
1775801476373896479,-0.358127,0.076672,9.80638
1775801476374785559,-0.358127,0.076672,9.80638
1775801476375856896,-0.358127,0.076672,9.80638
1775801476376649241,-0.358127,0.076672,9.80638
1775801476377819711,-0.29557,0.082304,9.80551
1775801476378754200,-0.29557,0.082304,9.80551
1775801476379947869,-0.29557,0.082304,9.80551
1775801476380685536,-0.29557,0.082304,9.80551
1775801476381926136,-0.235358,0.020326,9.81316
1775801476382915756,-0.235358,0.020326,9.81316
1775801476383790829,-0.235358,0.020326,9.81316
1775801476384791420,-0.235358,0.020326,9.81316
1775801476385808919,-0.235358,0.020326,9.81316
1775801476386952487,-0.271902,-0.003394,9.8259
1775801476387851520,-0.271902,-0.003394,9.8259
1775801476388810988,-0.271902,-0.003394,9.8259
1775801476389953689,-0.271902,-0.003394,9.8259
1775801476390933042,-0.271902,-0.003394,9.8259
1775801476391746401,-0.271902,-0.003394,9.8259
1775801476392710224,-0.334855,0.038728,9.81579
1775801476393790105,-0.334855,0.038728,9.81579
1775801476394729858,-0.334855,0.038728,9.81579
1775801476395772869,-0.334855,0.038728,9.81579
1775801476396846294,-0.328684,0.05859,9.83947
1775801476397711518,-0.328684,0.05859,9.83947
1775801476398732948,-0.328684,0.05859,9.83947
1775801476399924182,-0.328684,0.05859,9.83947
1775801476400722050,-0.328684,0.05859,9.83947
1775801476402033950,-0.281903,0.018673,9.86472
1775801476402793879,-0.281903,0.018673,9.86472
1775801476404092928,-0.281903,0.018673,9.86472
1775801476404779609,-0.281903,0.018673,9.86472
1775801476405948371,-0.281903,0.018673,9.86472
1775801476406850695,-0.281903,0.018673,9.86472
1775801476407919309,-0.216025,-0.008207,9.85299
1775801476408708217,-0.216025,-0.008207,9.85299
1775801476409906446,-0.216025,-0.008207,9.85299
1775801476410873857,-0.216025,-0.008207,9.85299
1775801476411908371,-0.15909,0.015993,9.86077
1775801476412709918,-0.15909,0.015993,9.86077
1775801476413901725,-0.15909,0.015993,9.86077
1775801476414799956,-0.15909,0.015993,9.86077
1775801476415904302,-0.15909,0.015993,9.86077
1775801476416710472,-0.15909,0.015993,9.86077
1775801476417910737,-0.191476,-0.006599,9.86352
1775801476418834951,-0.191476,-0.006599,9.86352
1775801476419970181,-0.191476,-0.006599,9.86352
1775801476420735334,-0.191476,-0.006599,9.86352
1775801476421942366,-0.308726,-0.094401,9.85552
1775801476422907543,-0.308726,-0.094401,9.85552
1775801476423857375,-0.308726,-0.094401,9.85552
1775801476424722210,-0.308726,-0.094401,9.85552
1775801476425930417,-0.308726,-0.094401,9.85552
1775801476426905068,-0.406143,-0.1150,9,9.84712
1775801476427833789,-0.406143,-0.115002,9.84712
1775801476428726940,-0.406143,-0.115002,9.84712
1775801476430026760,-0.406143,-0.115002,9.84712
1775801476430741533,-0.406143,-0.115002,9.84712
1775801476431900190,-0.406143,-0.115002,9.84712
1775801476432817127,-0.439829,-0.044644,9.87175
1775801476433915249,-0.439829,-0.044644,9.87175
1775801476434937922,-0.439829,-0.044644,9.87175
1775801476435913380,-0.439829,-0.044644,9.87175
1775801476436795184,-0.439829,-0.044644,9.87175
1775801476437928395,-0.453871,0.037079,9.89393
1775801476438892005,-0.453871,0.037079,9.89393
1775801476439953443,-0.453871,0.037079,9.89393
1775801476440732866,-0.453871,0.037079,9.89393
1775801476441932907,-0.401237,0.02438,9.87815
1775801476442766110,-0.401237,0.02438,9.87815
1775801476443932189,-0.401237,0.02438,9.87815
1775801476444714020,-0.401237,0.02438,9.87815
1775801476445914278,-0.401237,0.02438,9.87815
1775801476446821315,-0.401237,0.02438,9.87815
1775801476447970585,-0.345715,-0.043316,9.87218
1775801476448708792,-0.345715,-0.043316,9.87218
1775801476449915521,-0.345715,-0.043316,9.87218
1775801476450807015,-0.345715,-0.043316,9.87218
1775801476451884284,-0.350266,-0.003199,9.90039
1775801476452710960,-0.350266,-0.003199,9.90039
1775801476453983889,-0.350266,-0.003199,9.90039
1775801476455202699,-0.350266,-0.003199,9.90039
1775801476455916489,-0.350266,-0.003199,9.90039
1775801476456720540,-0.350266,-0.003199,9.90039
1775801476457917644,-0.351672,0.121203,9.89313
1775801476458790856,-0.351672,0.121203,9.89313
1775801476459994863,-0.351672,0.121203,9.89313
1775801476460709320,-0.351672,0.121203,9.89313
1775801476461821973,-0.351672,0.121203,9.89313
1775801476462795089,-0.374364,0.150921,9.8754
1775801476463923070,-0.374364,0.150921,9.8754
1775801476464708561,-0.374364,0.150921,9.8754
1775801476466034879,-0.374364,0.150921,9.8754
1775801476466713491,-0.374364,0.150921,9.8754
1775801476467859763,-0.403547,0.082529,9.87664
1775801476468735763,-0.403547,0.082529,9.87664
1775801476469957441,-0.403547,0.082529,9.87664
1775801476470839570,-0.403547,0.082529,9.87664
1775801476471992888,-0.406476,0.064912,9.88243
1775801476472718451,-0.406476,0.064912,9.88243
1775801476473952272,-0.406476,0.064912,9.88243
1775801476474817527,-0.406476,0.064912,9.88243
1775801476475916939,-0.406476,0.064912,9.88243
1775801476476679838,-0.406476,0.064912,9.88243
1775801476477903226,-0.413501,0.107232,9.87623
1775801476478792869,-0.413501,0.107232,9.87623
1775801476480004061,-0.413501,0.107232,9.87623
1775801476480684618,-0.413501,0.107232,9.87623
1775801476481926968,-0.413501,0.107232,9.87623
1775801476482814967,-0.407762,0.125015,9.84666
1775801476483977951,-0.407762,0.125015,9.84666
1775801476484728476,-0.407762,0.125015,9.84666
1775801476485924594,-0.407762,0.125015,9.84666
1775801476486858417,-0.407762,0.125015,9.84666
1775801476487992385,-0.388773,0.060783,9.84389
1775801476488718921,-0.388773,0.060783,9.84389
1775801476489917321,-0.388773,0.060783,9.84389
1775801476490861762,-0.388773,0.060783,9.84389
1775801476491860892,-0.358152,-0.001324,9.86786
1775801476492757225,-0.358152,-0.001324,9.86786
1775801476494084924,-0.358152,-0.001324,9.86786
1775801476494768660,-0.358152,-0.001324,9.86786
1775801476495960117,-0.358152,-0.001324,9.86786
1775801476496718714,-0.358152,-0.001324,9.86786
1775801476497935103,-0.34624,-0.000263,9.85191
1775801476498866978,-0.34624,-0.000263,9.85191
1775801476499999217,-0.34624,-0.000263,9.85191
1775801476500756629,-0.34624,-0.000263,9.85191
1775801476501887967,-0.34624,-0.000263,9.85191
1775801476502767794,-0.355736,0.0217,9.82163
1775801476503898081,-0.355736,0.0217,9.82163
1775801476504659383,-0.355736,0.0217,9.82163
1775801476505792085,-0.355736,0.0217,9.82163
1775801476506794292,-0.355736,0.0217,9.82163
1775801476507872416,-0.351037,0.019103,9.82291
1775801476508781990,-0.351037,0.019103,9.82291
1775801476509910983,-0.351037,0.019103,9.82291
1775801476510793129,-0.351037,0.019103,9.82291
1775801476511947457,-0.351117,-0.009693,9.83461
1775801476512739236,-0.351117,-0.009693,9.83461
1775801476514053004,-0.351117,-0.009693,9.83461
1775801476514729102,-0.351117,-0.009693,9.83461
1775801476515874638,-0.351117,-0.009693,9.83461
1775801476516679774,-0.351117,-0.009693,9.83461
1775801476517872721,-0.348753,-0.01875,9.81128
1775801476518687921,-0.348753,-0.01875,9.81128
1775801476519824983,-0.348753,-0.01875,9.81128
1775801476520692219,-0.348753,-0.01875,9.81128
1775801476521799198,-0.348753,-0.01875,9.81128
1775801476522851789,-0.332789,-0.011382,9.79163
1775801476523853202,-0.332789,-0.011382,9.79163
1775801476524720810,-0.332789,-0.011382,9.79163
1775801476525884109,-0.332789,-0.011382,9.79163
1775801476526775144,-0.332789,-0.011382,9.79163
1775801476527859770,-0.340179,-0.0298,9.79731
1775801476528718005,-0.340179,-0.0298,9.79731
1775801476529884624,-0.340179,-0.0298,9.79731
1775801476530806464,-0.340179,-0.0298,9.79731
1775801476531907193,-0.340179,-0.0298,9.79731
1775801476532707864,-0.365019,-0.042726,9.78948
1775801476533861328,-0.365019,-0.042726,9.78948
1775801476534806658,-0.365019,-0.042726,9.78948
1775801476535911635,-0.365019,-0.042726,9.78948
1775801476536687386,-0.365019,-0.042726,9.78948
1775801476537726231,-0.371148,-0.026481,9.77552
1775801476538766004,-0.371148,-0.026481,9.77552
1775801476539755607,-0.371148,-0.026481,9.77552
1775801476540668374,-0.371148,-0.026481,9.77552
1775801476541790641,-0.331098,0.014359,9.76886
1775801476542670794,-0.331098,0.014359,9.76886
1775801476543745987,-0.331098,0.014359,9.76886
1775801476544682239,-0.331098,0.014359,9.76886
1775801476545704395,-0.331098,0.014359,9.76886
1775801476546763004,-0.331098,0.014359,9.76886
1775801476547781023,-0.306361,0.04105,9.78431
1775801476548683925,-0.306361,0.04105,9.78431
1775801476549929449,-0.306361,0.04105,9.78431
1775801476550702361,-0.306361,0.04105,9.78431
1775801476551837358,-0.30505,0.005904,9.7709
1775801476552696468,-0.30505,0.005904,9.7709
1775801476553958523,-0.30505,0.005904,9.7709
1775801476554711945,-0.30505,0.005904,9.7709
1775801476555910087,-0.30505,0.005904,9.7709
1775801476556730388,-0.30505,0.005904,9.7709
1775801476557803451,-0.322288,-0.019202,9.75475
1775801476558741432,-0.322288,-0.019202,9.75475
1775801476559878213,-0.322288,-0.019202,9.75475
1775801476560754015,-0.322288,-0.019202,9.75475
1775801476561809922,-0.322288,-0.019202,9.75475
1775801476562754723,-0.346802,0.004726,9.75015
1775801476564000443,-0.346802,0.004726,9.75015
1775801476564941061,-0.346802,0.004726,9.75015
1775801476565856432,-0.346802,0.004726,9.75015
1775801476566812865,-0.346802,0.004726,9.75015
1775801476567976399,-0.365639,0.044031,9.75288
1775801476568866851,-0.365639,0.044031,9.75288
1775801476569879498,-0.365639,0.044031,9.75288
1775801476570896823,-0.365639,0.044031,9.75288
1775801476572002353,-0.358464,0.052623,9.75203
1775801476572890406,-0.358464,0.052623,9.75203
1775801476574001723,-0.358464,0.052623,9.75203
1775801476574947344,-0.358464,0.052623,9.75203
1775801476575984282,-0.358464,0.052623,9.75203
1775801476576820656,-0.358464,0.052623,9.75203
1775801476578084940,-0.343089,0.026976,9.75765
1775801476578847329,-0.343089,0.026976,9.75765
1775801476579956615,-0.343089,0.026976,9.75765
1775801476581026677,-0.343089,0.026976,9.75765
1775801476581852687,-0.329902,0.018402,9.75876
1775801476582994881,-0.329902,0.018402,9.75876
1775801476583890919,-0.329902,0.018402,9.75876
1775801476584926462,-0.329902,0.018402,9.75876
1775801476585873047,-0.329902,0.018402,9.75876
1775801476587101197,-0.350138,0.025397,9.75085
1775801476587849562,-0.350138,0.025397,9.75085
1775801476588828117,-0.350138,0.025397,9.75085
1775801476589828587,-0.350138,0.025397,9.75085
1775801476590938760,-0.350138,0.025397,9.75085
1775801476591948460,-0.381864,0.005786,9.73425
1775801476592863579,-0.381864,0.005786,9.73425
1775801476593997386,-0.381864,0.005786,9.73425
1775801476595108951,-0.381864,0.005786,9.73425
1775801476595827974,-0.381864,0.005786,9.73425
1775801476596893349,-0.397303,-0.025728,9.74458
1775801476598005305,-0.397303,-0.025728,9.74458
1775801476598862059,-0.397303,-0.025728,9.74458
1775801476600053972,-0.397303,-0.025728,9.74458
1775801476600943595,-0.397303,-0.0257,9,9.74458
1775801476602027610,-0.385257,-0.034632,9.74857
1775801476602853023,-0.385257,-0.034632,9.74857
1775801476604051958,-0.385257,-0.034632,9.74857
1775801476604834247,-0.385257,-0.034632,9.74857
1775801476606061527,-0.385257,-0.034632,9.74857
1775801476606857962,-0.365719,-0.000474,9.74883
1775801476607965512,-0.365719,-0.000474,9.74883
1775801476608811690,-0.365719,-0.000474,9.74883
1775801476609943882,-0.365719,-0.000474,9.74883
1775801476610999391,-0.365719,-0.000474,9.74883
1775801476612009481,-0.364799,0.003413,9.73736
1775801476612827121,-0.364799,0.003413,9.73736
1775801476614012126,-0.364799,0.003413,9.73736
1775801476614886308,-0.364799,0.003413,9.73736
1775801476616018358,-0.364799,0.003413,9.73736
1775801476616825653,-0.376942,-0.017306,9.74604
1775801476618076899,-0.376942,-0.017306,9.74604
1775801476618886002,-0.376942,-0.017306,9.74604
1775801476620003139,-0.376942,-0.017306,9.74604
1775801476620798086,-0.376942,-0.017306,9.74604
1775801476621859478,-0.376942,-0.017306,9.74604
1775801476622906093,-0.386066,-0.02277,9.75257
1775801476623759913,-0.386066,-0.02277,9.75257
1775801476624835537,-0.386066,-0.02277,9.75257
1775801476625765635,-0.386066,-0.02277,9.75257
1775801476626948583,-0.375732,-0.004169,9.76436
1775801476627722759,-0.375732,-0.004169,9.76436
1775801476628828526,-0.375732,-0.004169,9.76436
1775801476629751154,-0.375732,-0.004169,9.76436
1775801476630982185,-0.375732,-0.004169,9.76436
1775801476631735045,-0.375732,-0.004169,9.76436
1775801476632802984,-0.366878,0.024056,9.76246
1775801476633751247,-0.366878,0.024056,9.76246
1775801476634888265,-0.366878,0.024056,9.76246
1775801476635790252,-0.366878,0.024056,9.76246
1775801476636898036,-0.36101,0.006381,9.76173
1775801476637748235,-0.36101,0.006381,9.76173
1775801476638870557,-0.36101,0.006381,9.76173
1775801476639787221,-0.36101,0.006381,9.76173
1775801476640820124,-0.36101,0.006381,9.76173
1775801476641747499,-0.36101,0.006381,9.76173
1775801476642910781,-0.364189,-0.006143,9.77702
1775801476643804338,-0.364189,-0.006143,9.77702
1775801476644803978,-0.364189,-0.006143,9.77702
1775801476645780181,-0.364189,-0.006143,9.77702
1775801476646967469,-0.371246,0.0114,9.79071
1775801476647837833,-0.371246,0.0114,9.79071
1775801476648805319,-0.371246,0.0114,9.79071
1775801476649823661,-0.371246,0.0114,9.79071
1775801476650847312,-0.371246,0.0114,9.79071
1775801476651815066,-0.371246,0.0114,9.79071
1775801476653093441,-0.37131,0.017374,9.78839
1775801476653932519,-0.37131,0.017374,9.78839
1775801476654873187,-0.37131,0.017374,9.78839
1775801476655662473,-0.37131,0.017374,9.78839
1775801476656794768,-0.359871,0.007689,9.80135
1775801476657778223,-0.359871,0.007689,9.80135
1775801476658961013,-0.359871,0.007689,9.80135
1775801476659771040,-0.359871,0.007689,9.80135
1775801476660777389,-0.359871,0.007689,9.80135
1775801476661805993,-0.359871,0.007689,9.80135
1775801476662913988,-0.354648,-0.017542,9.82476
1775801476663777492,-0.354648,-0.017542,9.82476
1775801476664810287,-0.354648,-0.017542,9.82476
1775801476665705635,-0.354648,-0.017542,9.82476
1775801476666943627,-0.354648,-0.017542,9.82476
1775801476667849044,-0.359792,-0.003442,9.82556
1775801476668851335,-0.359792,-0.003442,9.82556
1775801476669829164,-0.359792,-0.003442,9.82556
1775801476670920425,-0.359792,-0.003442,9.82556
1775801476671831480,-0.359792,-0.003442,9.82556
1775801476672851525,-0.368637,0.022455,9.82024
1775801476673808771,-0.368637,0.022455,9.82024
1775801476674981896,-0.368637,0.022455,9.82024
1775801476675807802,-0.368637,0.022455,9.82024
1775801476676834635,-0.368637,0.022455,9.82024
1775801476677709656,-0.366402,0.018542,9.83357
1775801476678893646,-0.366402,0.018542,9.83357
1775801476679849307,-0.366402,0.018542,9.83357
1775801476680791310,-0.366402,0.018542,9.83357
1775801476681703054,-0.366402,0.018542,9.83357
1775801476682886726,-0.373073,-0.002145,9.85026
1775801476683709611,-0.373073,-0.002145,9.85026
1775801476684910806,-0.373073,-0.002145,9.85026
1775801476685867876,-0.373073,-0.002145,9.85026
1775801476686937389,-0.372,0.006146,9.8629
1775801476687821661,-0.372,0.006146,9.8629
1775801476688712847,-0.372,0.006146,9.8629
1775801476690096195,-0.372,0.006146,9.8629
1775801476690736059,-0.372,0.006146,9.8629
1775801476691908160,-0.372,0.006146,9.8629
1775801476692683373,-0.367218,0.026658,9.86535
1775801476693890885,-0.367218,0.026658,9.86535
1775801476694796207,-0.367218,0.026658,9.86535
1775801476695871652,-0.367218,0.026658,9.86535
1775801476696664658,-0.367218,0.026658,9.86535
1775801476697942103,-0.365179,0.023015,9.86119
1775801476698813754,-0.365179,0.023015,9.86119
1775801476699908583,-0.365179,0.023015,9.86119
1775801476700678849,-0.365179,0.023015,9.86119
1775801476701893278,-0.365179,0.023015,9.86119
1775801476702861536,-0.357137,-0.012865,9.87418
1775801476703911135,-0.357137,-0.012865,9.87418
1775801476704684528,-0.357137,-0.012865,9.87418
1775801476705851726,-0.357137,-0.012865,9.87418
1775801476706790652,-0.357137,-0.012865,9.87418
1775801476707855734,-0.360117,-0.015308,9.88341
1775801476708667052,-0.360117,-0.015308,9.88341
1775801476709961270,-0.360117,-0.015308,9.88341
1775801476710817250,-0.360117,-0.015308,9.88341
1775801476711837494,-0.360117,-0.015308,9.88341
1775801476712658452,-0.367808,0.020001,9.88692
1775801476713910911,-0.367808,0.020001,9.88692
1775801476714804224,-0.367808,0.020001,9.88692
1775801476715897233,-0.367808,0.020001,9.88692
1775801476716656970,-0.367808,0.020001,9.88692
1775801476717849108,-0.362773,0.048899,9.88675
1775801476718794619,-0.362773,0.048899,9.88675
1775801476719843663,-0.362773,0.048899,9.88675
1775801476720666731,-0.362773,0.048899,9.88675
1775801476721974514,-0.362773,0.048899,9.88675
1775801476722805854,-0.358424,0.031767,9.89391
1775801476723974763,-0.358424,0.031767,9.89391
1775801476724680043,-0.358424,0.031767,9.89391
1775801476725926759,-0.358424,0.031767,9.89391
1775801476726816693,-0.358424,0.031767,9.89391
1775801476727921486,-0.365225,0.024509,9.89516
1775801476728679884,-0.365225,0.024509,9.89516
1775801476729907390,-0.365225,0.024509,9.89516
1775801476730777680,-0.365225,0.024509,9.89516
1775801476731909823,-0.365225,0.024509,9.89516
1775801476732689227,-0.366573,0.047806,9.88588
1775801476733897245,-0.366573,0.047806,9.88588
1775801476734845529,-0.366573,0.047806,9.88588
1775801476735908976,-0.366573,0.047806,9.88588
1775801476736896761,-0.378096,0.067665,9.87956
1775801476737917868,-0.378096,0.067665,9.87956
1775801476738825006,-0.378096,0.067665,9.87956
1775801476739994346,-0.378096,0.067665,9.87956
1775801476740744981,-0.378096,0.067665,9.87956
1775801476741912267,-0.378096,0.067665,9.87956
1775801476742842559,-0.378281,0.063502,9.88273
1775801476743765407,-0.378281,0.063502,9.88273
1775801476744879920,-0.378281,0.063502,9.88273
1775801476745874678,-0.378281,0.063502,9.88273
1775801476746939309,-0.378281,0.063502,9.88273
1775801476747969972,-0.373223,0.038633,9.8812
1775801476748899502,-0.373223,0.038633,9.8812
1775801476750029220,-0.373223,0.038633,9.8812
1775801476750982428,-0.373223,0.038633,9.8812
1775801476751920303,-0.373223,0.038633,9.8812
1775801476752960782,-0.367063,0.034537,9.88498
1775801476753830557,-0.367063,0.034537,9.88498
1775801476755063227,-0.367063,0.034537,9.88498
1775801476755882272,-0.367063,0.034537,9.88498
1775801476756920435,-0.347811,0.044731,9.87355
1775801476757919876,-0.347811,0.044731,9.87355
1775801476759042811,-0.347811,0.044731,9.87355
1775801476759981308,-0.347811,0.044731,9.87355
1775801476760942874,-0.347811,0.044731,9.87355
1775801476762036037,-0.342263,0.034286,9.86681
1775801476762886890,-0.342263,0.034286,9.86681
1775801476763841974,-0.342263,0.034286,9.86681
1775801476764890648,-0.342263,0.034286,9.86681
1775801476765946503,-0.342263,0.034286,9.86681
1775801476766902321,-0.342263,0.034286,9.86681
1775801476767845696,-0.342112,0.01846,9.8567
1775801476768934914,-0.342112,0.01846,9.8567
1775801476769821037,-0.342112,0.01846,9.8567
1775801476770922902,-0.342112,0.01846,9.8567
1775801476771798679,-0.342112,0.01846,9.8567
1775801476772885345,-0.336332,0.01869,9.86189
1775801476773783378,-0.336332,0.01869,9.86189
1775801476774882171,-0.336332,0.01869,9.86189
17758014767758908,-,-0.336332,0.01869,9.86189
1775801476776848371,-0.336332,0.01869,9.86189
1775801476777838507,-0.326242,0.025365,9.85568
1775801476778873873,-0.326242,0.025365,9.85568
1775801476779739269,-0.326242,0.025365,9.85568
1775801476780828409,-0.326242,0.025365,9.85568
1775801476781964370,-0.321875,0.022391,9.85838
1775801476782960258,-0.321875,0.022391,9.85838
1775801476783894215,-0.321875,0.022391,9.85838
1775801476784827439,-0.321875,0.022391,9.85838
1775801476786054957,-0.321875,0.022391,9.85838
1775801476786906570,-0.321845,0.00814,9.85208
1775801476788023827,-0.321845,0.00814,9.85208
1775801476788887291,-0.321845,0.00814,9.85208
1775801476789982306,-0.321845,0.00814,9.85208
1775801476791008892,-0.321845,0.00814,9.85208
1775801476791860034,-0.328376,0.009841,9.8551
1775801476792785074,-0.328376,0.009841,9.8551
1775801476793928857,-0.328376,0.009841,9.8551
1775801476794984254,-0.328376,0.009841,9.8551
1775801476795918382,-0.328376,0.009841,9.8551
1775801476797530242,-0.335461,0.019901,9.84348
1775801476797698597,-0.335461,0.019901,9.84348
1775801476798995820,-0.335461,0.019901,9.84348
1775801476799900729,-0.335461,0.019901,9.84348
1775801476800756025,-0.335461,0.019901,9.84348
1775801476801925726,-0.338491,0.007716,9.81874
1775801476803008330,-0.338491,0.007716,9.81874
1775801476803803749,-0.338491,0.007716,9.81874
1775801476804866924,-0.338491,0.007716,9.81874
1775801476806005190,-0.338491,0.007716,9.81874
1775801476807004915,-0.343267,-0.012931,9.80928
1775801476807884666,-0.343267,-0.012931,9.80928
1775801476808772538,-0.343267,-0.012931,9.80928
1775801476809922837,-0.343267,-0.012931,9.80928
1775801476810788983,-0.343267,-0.012931,9.80928
1775801476811934230,-0.354252,-0.008191,9.8149
1775801476812724149,-0.354252,-0.008191,9.8149
1775801476813973981,-0.354252,-0.008191,9.8149
1775801476814691258,-0.354252,-0.008191,9.8149
1775801476815840458,-0.354252,-0.008191,9.8149
1775801476816708880,-0.354252,-0.008191,9.8149
1775801476817838204,-0.357543,0.009939,9.80661
1775801476818772379,-0.357543,0.009939,9.80661
1775801476819848908,-0.357543,0.009939,9.80661
1775801476820645982,-0.357543,0.009939,9.80661
1775801476821850837,-0.357543,0.009939,9.80661
1775801476822735998,-0.357543,0.009939,9.80661
1775801476823844040,-0.350834,0.026087,9.78805
1775801476824737708,-0.350834,0.026087,9.78805
1775801476825963446,-0.350834,0.026087,9.78805
1775801476826979060,-0.35048,0.001031,9.77709
1775801476827990758,-0.35048,0.001031,9.77709
1775801476828814461,-0.35048,0.001031,9.77709
1775801476829963247,-0.35048,0.001031,9.77709
1775801476830925217,-0.35048,0.001031,9.77709
1775801476832045764,-0.351789,-0.015688,9.77672
1775801476832824722,-0.351789,-0.015688,9.77672
1775801476834029290,-0.351789,-0.015688,9.77672
1775801476834892487,-0.351789,-0.015688,9.77672
1775801476835873689,-0.351789,-0.015688,9.77672
1775801476836797258,-0.346589,0.000368,9.77202
1775801476837999740,-0.346589,0.000368,9.77202
1775801476839032613,-0.346589,0.000368,9.77202
1775801476840001281,-0.346589,0.000368,9.77202
1775801476840860589,-0.346589,0.000368,9.77202
1775801476841944614,-0.336804,0.007877,9.76547
1775801476843025443,-0.336804,0.007877,9.76547
1775801476843969089,-0.336804,0.007877,9.76547
1775801476844871211,-0.336804,0.007877,9.76547
1775801476845970370,-0.336804,0.007877,9.76547
1775801476846948876,-0.326986,-0.00074,9.76187
1775801476847996744,-0.326986,-0.00074,9.76187
1775801476848809715,-0.326986,-0.00074,9.76187
1775801476850184791,-0.326986,-0.00074,9.76187
1775801476850907678,-0.326986,-0.00074,9.76187
1775801476852067152,-0.323755,-0.016429,9.76195
1775801476853078549,-0.323755,-0.016429,9.76195
1775801476853928881,-0.323755,-0.016429,9.76195
1775801476855008793,-0.323755,-0.016429,9.76195
1775801476855869290,-0.323755,-0.016429,9.76195
1775801476856818299,-0.32079,-0.004367,9.75762
1775801476857964967,-0.32079,-0.004367,9.75762
1775801476858948009,-0.32079,-0.004367,9.75762
1775801476859859680,-0.32079,-0.004367,9.75762
1775801476860843504,-0.32079,-0.004367,9.75762
1775801476862002996,-0.314081,0.002572,9.73601
1775801476863007675,-0.314081,0.002572,9.73601
1775801476863919205,-0.314081,0.002572,9.73601
1775801476864918902,-0.314081,0.002572,9.73601
1775801476866018183,-0.314081,0.002572,9.73601
1775801476866930080,-0.307533,-0.011764,9.7371
1775801476867802824,-0.307533,-0.011764,9.7371
1775801476868875369,-0.307533,-0.011764,9.7371
1775801476869884411,-0.307533,-0.011764,9.7371
1775801476870871193,-0.307533,-0.011764,9.7371
1775801476871848525,-0.306393,-0.025114,9.7333
1775801476872681176,-0.306393,-0.025114,9.7333
1775801476873834388,-0.306393,-0.025114,9.7333
1775801476874770441,-0.306393,-0.025114,9.7333
1775801476875921104,-0.306393,-0.025114,9.7333
1775801476876686610,-0.306393,-0.025114,9.7333
1775801476877869334,-0.309726,-0.018264,9.73826
1775801476878709061,-0.309726,-0.018264,9.73826
1775801476879824005,-0.309726,-0.018264,9.73826
1775801476880683997,-0.309726,-0.018264,9.73826
1775801476881920405,-0.312224,-0.00425,9.73205
1775801476882745453,-0.312224,-0.00425,9.73205
1775801476883886382,-0.312224,-0.00425,9.73205
1775801476884707580,-0.312224,-0.00425,9.73205
1775801476885889291,-0.312224,-0.00425,9.73205
1775801476886718542,-0.312224,-0.00425,9.73205
