timestamp_ns,gyro_x,gyro_y,gyro_z
1775801474342912284,-0.000441219,-0.000951431,0.00256494
1775801474343101543,-0.000441219,-0.000951431,0.00256494
1775801474343845942,-0.000441219,-0.000951431,0.00256494
1775801474344807636,-0.000441219,-0.000951431,0.00256494
1775801474345754683,-0.000441219,-0.000951431,0.00256494
1775801474346801655,-0.000441219,-0.000951431,0.00256494
1775801474347742257,0.00080245,0.00121348,0.00189332
1775801474348750575,0.00080245,0.00121348,0.00189332
1775801474349820032,0.00080245,0.00121348,0.00189332
1775801474350830974,0.00080245,0.00121348,0.00189332
1775801474351845328,0.00080245,0.00121348,0.00189332
1775801474352785844,-0.000422492,0.000613099,0.00195292
1775801474353880793,-0.000422492,0.000613099,0.00195292
1775801474354855684,-0.000422492,0.000613099,0.00195292
1775801474355807415,-0.000422492,0.000613099,0.00195292
1775801474356791140,-0.000422492,0.000613099,0.00195292
1775801474357860301,-0.000370516,-0.00250758,-0.000426017
1775801474358867968,-0.000370516,-0.00250758,-0.000426017
1775801474359885255,-0.000370516,-0.00250758,-0.000426017
1775801474360780706,-0.000370516,-0.00250758,-0.000426017
1775801474361835267,-0.000370516,-0.00250758,-0.000426017
1775801474362880532,0.00276287,-0.000898338,0.00163422
1775801474363896600,0.00276287,-0.000898338,0.00163422
1775801474364803848,0.00276287,-0.000898338,0.00163422
1775801474365945646,0.00276287,-0.000898338,0.00163422
1775801474366821374,0.00276287,-0.000898338,0.00163422
1775801474367840661,0.000876365,0.00106495,0.00211438
1775801474368742885,0.000876365,0.00106495,0.00211438
1775801474369827124,0.000876365,0.00106495,0.00211438
1775801474370873873,0.000876365,0.00106495,0.00211438
1775801474371766541,0.000876365,0.00106495,0.00211438
1775801474372805597,0.000876365,0.00106495,0.00211438
1775801474373854911,3.29867e-06,0.000234572,0.00268529
1775801474374868115,3.29867e-06,0.000234572,0.00268529
1775801474375873757,3.29867e-06,0.000234572,0.00268529
1775801474376805111,2.32129e-06,0.00201931,0.00180893
1775801474377923870,2.32129e-06,0.00201931,0.00180893
1775801474378967790,2.32129e-06,0.00201931,0.00180893
1775801474379916741,2.32129e-06,0.00201931,0.00180893
1775801474380848679,2.32129e-06,0.00201931,0.00180893
1775801474382261536,0.000820601,0.00219168,0.00140537
1775801474382935186,0.000820601,0.00219168,0.00140537
1775801474383933618,0.000820601,0.00219168,0.00140537
1775801474384815795,0.000820601,0.00219168,0.00140537
1775801474385803335,0.000820601,0.00219168,0.00140537
1775801474386852404,0.00226025,0.000713665,-0.000664831
1775801474387917778,0.00226025,0.000713665,-0.000664831
1775801474388915243,0.00226025,0.000713665,-0.000664831
1775801474389981902,0.00226025,0.000713665,-0.000664831
1775801474390885273,0.00226025,0.000713665,-0.000664831
1775801474392132724,0.00256708,-0.000574737,-0.00246945
1775801474392899661,0.00256708,-0.000574737,-0.00246945
1775801474394008944,0.00256708,-0.000574737,-0.00246945
1775801474394799490,0.00256708,-0.000574737,-0.00246945
1775801474395944614,0.00256708,-0.000574737,-0.00246945
1775801474396751284,0.00231853,-0.00353368,0.000580933
1775801474397930105,0.00231853,-0.00353368,0.000580933
1775801474398973558,0.00231853,-0.00353368,0.000580933
1775801474399939252,0.00231853,-0.00353368,0.000580933
1775801474400706329,0.00231853,-0.00353368,0.000580933
1775801474402019735,0.00157804,-0.000846991,0.00306654
1775801474402734055,0.00157804,-0.000846991,0.00306654
1775801474404056173,0.00157804,-0.000846991,0.00306654
1775801474404667088,0.00157804,-0.000846991,0.00306654
1775801474405847083,0.00157804,-0.000846991,0.00306654
1775801474406689511,0.00157804,-0.000846991,0.00306654
1775801474407790794,-0.00111664,0.00212438,0.0056971
1775801474408698174,-0.00111664,0.00212438,0.0056971
1775801474409882122,-0.00111664,0.00212438,0.0056971
1775801474410812122,-0.00111664,0.00212438,0.0056971
1775801474411914573,-0.00111664,0.00212438,0.0056971
1775801474412694274,-0.00111664,0.00212438,0.0056971
1775801474413920872,-0.00225559,-0.000773774,0.00468029
1775801474414774294,-0.00225559,-0.000773774,0.00468029
1775801474415897811,-0.00225559,-0.000773774,0.00468029
1775801474416684697,-0.00225559,-0.000773774,0.00468029
1775801474417908450,-0.00128624,-0.00153015,-0.000677642
1775801474418933648,-0.00128624,-0.00153015,-0.000677642
1775801474419937116,-0.00128624,-0.00153015,-0.000677642
1775801474420882997,-0.00128624,-0.00153015,-0.000677642
1775801474421906851,-0.00128624,-0.00153015,-0.000677642
1775801474422821624,-0.00128624,-0.00153015,-0.000677642
1775801474423933564,-0.0035695,-0.00311969,-0.00063139
1775801474424692638,-0.0035695,-0.00311969,-0.00063139
1775801474425860975,-0.0035695,-0.00311969,-0.00063139
1775801474426721175,-0.0035695,-0.00311969,-0.00063139
1775801474427992435,-0.00512382,-0.000321525,-0.00647976
1775801474428714714,-0.00512382,-0.000321525,-0.00647976
1775801474429922331,-0.00512382,-0.000321525,-0.00647976
1775801474430709536,-0.00512382,-0.000321525,-0.00647976
1775801474431950734,-0.00512382,-0.000321525,-0.00647976
1775801474432715821,-0.00512382,-0.000321525,-0.00647976
1775801474433905056,-0.00107685,-0.00134762,-0.0119636
1775801474434912360,-0.00107685,-0.00134762,-0.0119636
1775801474435977317,-0.00107685,-0.00134762,-0.0119636
1775801474436662226,-0.00107685,-0.00134762,-0.0119636
1775801474437861279,0.00089209,-8.87849e-05,-0.0115769
1775801474438737189,0.00089209,-8.87849e-05,-0.0115769
1775801474439899813,0.00089209,-8.87849e-05,-0.0115769
1775801474440647671,0.00089209,-8.87849e-05,-0.0115769
1775801474441816091,0.002447,-0.00345694,-0.0118657
1775801474442766686,0.002447,-0.00345694,-0.0118657
1775801474443990654,0.002447,-0.00345694,-0.0118657
1775801474444678076,0.002447,-0.00345694,-0.0118657
1775801474445887875,0.002447,-0.00345694,-0.0118657
1775801474446764297,0.002447,-0.00345694,-0.0118657
1775801474447804306,0.00592733,-0.0128085,-0.00858306
1775801474448656918,0.00592733,-0.0128085,-0.00858306
1775801474449823640,0.00592733,-0.0128085,-0.00858306
1775801474450738448,0.00592733,-0.0128085,-0.00858306
1775801474451831504,0.00592733,-0.0128085,-0.00858306
1775801474452618783,0.00595124,-0.0247878,-0.00698161
1775801474453797415,0.00595124,-0.0247878,-0.00698161
1775801474454874593,0.00595124,-0.0247878,-0.00698161
1775801474455946871,0.00595124,-0.0247878,-0.00698161
1775801474456798938,0.00673781,-0.0289851,-0.0013875
1775801474457849353,0.00673781,-0.0289851,-0.0013875
1775801474458821342,0.00673781,-0.0289851,-0.0013875
1775801474459895599,0.00673781,-0.0289851,-0.0013875
1775801474460698511,0.00673781,-0.0289851,-0.0013875
1775801474461780950,0.00673781,-0.0289851,-0.0013875
1775801474462897273,0.00066689,-0.0302395,-0.00325898
1775801474463726226,0.00066689,-0.0302395,-0.00325898
1775801474464650062,0.00066689,-0.0302395,-0.00325898
1775801474465756531,0.00066689,-0.0302395,-0.00325898
1775801474466750755,0.00066689,-0.0302395,-0.00325898
1775801474467732127,-0.00410552,-0.0314334,-0.00686016
1775801474468674447,-0.00410552,-0.0314334,-0.00686016
1775801474469722912,-0.00410552,-0.0314334,-0.00686016
1775801474470761591,-0.00410552,-0.0314334,-0.00686016
1775801474471786458,-0.00410552,-0.0314334,-0.00686016
1775801474472585944,-0.00410552,-0.0314334,-0.00686016
1775801474473653907,-0.00647805,-0.0351081,-0.00519373
1775801474474626350,-0.00647805,-0.0351081,-0.00519373
1775801474475707615,-0.00647805,-0.0351081,-0.00519373
1775801474476633272,-0.00647805,-0.0351081,-0.00519373
1775801474477665074,-0.00647805,-0.0351081,-0.00519373
1775801474478662070,-0.00556113,-0.0402197,-0.01264
1775801474479668843,-0.00556113,-0.0402197,-0.01264
1775801474480647528,-0.00556113,-0.0402197,-0.01264
1775801474481890553,-0.00556113,-0.0402197,-0.01264
1775801474482726435,-0.00997215,-0.0428007,-0.0139087
1775801474483769017,-0.00997215,-0.0428007,-0.0139087
1775801474484814130,-0.00997215,-0.0428007,-0.0139087
1775801474486350317,-0.00997215,-0.0428007,-0.0139087
1775801474486713031,-0.00997215,-0.0428007,-0.0139087
1775801474487838380,-0.0131453,-0.0415439,-0.0118373
1775801474488682537,-0.0131453,-0.0415439,-0.0118373
1775801474489931702,-0.0131453,-0.0415439,-0.0118373
1775801474490730346,-0.0131453,-0.0415439,-0.0118373
1775801474491839300,-0.0131453,-0.0415439,-0.0118373
1775801474492716113,-0.0110076,-0.0340318,-0.0043935
1775801474493881172,-0.0110076,-0.0340318,-0.0043935
1775801474494820640,-0.0110076,-0.0340318,-0.0043935
1775801474495929489,-0.0110076,-0.0340318,-0.0043935
1775801474496702712,-0.0110076,-0.0340318,-0.0043935
1775801474497872269,-0.0130406,-0.0307462,-0.000838683
1775801474498923327,-0.0130406,-0.0307462,-0.000838683
1775801474499831031,-0.0130406,-0.0307462,-0.000838683
1775801474500740693,-0.0130406,-0.0307462,-0.000838683
1775801474501890608,-0.0138625,-0.0336318,0.00305942
1775801474502835536,-0.0138625,-0.0336318,0.00305942
1775801474503832568,-0.0138625,-0.0336318,0.00305942
1775801474504687789,-0.0138625,-0.0336318,0.00305942
1775801474505794851,-0.0138625,-0.0336318,0.00305942
1775801474506799470,-0.0138625,-0.0336318,0.00305942
1775801474507865202,-0.0141369,-0.0392531,0.00770997
1775801474508665975,-0.0141369,-0.0392531,0.00770997
1775801474509917426,-0.0141369,-0.0392531,0.00770997
1775801474510812522,-0.0141369,-0.0392531,0.00770997
1775801474511871162,-0.00842678,-0.0433691,0.0133841
1775801474513073453,-0.00842678,-0.0433691,0.0133841
1775801474513883000,-0.00842678,-0.0433691,0.0133841
1775801474514819527,-0.00842678,-0.0433691,0.0133841
1775801474515909651,-0.00842678,-0.0433691,0.0133841
1775801474516719335,-0.00842678,-0.0433691,0.0133841
1775801474518081670,-0.00600831,-0.0430212,0.0161233
1775801474518734602,-0.00600831,-0.0430212,0.0161233
1775801474519902356,-0.00600831,-0.0430212,0.0161233
1775801474520664294,-0.00600831,-0.0430212,0.0161233
1775801474521867312,-0.00600831,-0.0430212,0.0161233
1775801474522825123,-0.00600831,-0.0430212,0.0161233
1775801474523907344,0.00046513,-0.0406443,0.0170337
1775801474524686843,0.00046513,-0.0406443,0.0170337
1775801474525878085,0.00046513,-0.0406443,0.0170337
1775801474526839898,0.00046513,-0.0406443,0.0170337
1775801474527934812,0.00352555,-0.0370654,0.0196895
1775801474528706226,0.00352555,-0.0370654,0.0196895
1775801474529937130,0.00352555,-0.0370654,0.0196895
1775801474530848249,0.00352555,-0.0370654,0.0196895
1775801474531902456,0.00352555,-0.0370654,0.0196895
1775801474532756324,0.0080538,-0.0406791,0.0172803
1775801474533918184,0.0080538,-0.0406791,0.0172803
1775801474534815618,0.0080538,-0.0406791,0.0172803
1775801474535881927,0.0080538,-0.0406791,0.0172803
1775801474536684324,0.0080538,-0.0406791,0.0172803
1775801474537930598,0.0159488,-0.0422642,0.0103028
1775801474538706076,0.0159488,-0.0422642,0.0103028
1775801474539881817,0.0159488,-0.0422642,0.0103028
1775801474540689532,0.0159488,-0.0422642,0.0103028
1775801474541843912,0.0159488,-0.0422642,0.0103028
1775801474542774483,0.0177627,-0.0449224,0.00826967
1775801474543839227,0.0177627,-0.0449224,0.00826967
1775801474544650868,0.0177627,-0.0449224,0.00826967
1775801474545925203,0.0177627,-0.0449224,0.00826967
1775801474546781086,0.0177627,-0.0449224,0.00826967
1775801474547876940,0.0163136,-0.0498704,0.0080496
1775801474548845732,0.0163136,-0.0498704,0.0080496
1775801474549890515,0.0163136,-0.0498704,0.0080496
1775801474550828310,0.0163136,-0.0498704,0.0080496
1775801474551908484,0.0163136,-0.0498704,0.0080496
1775801474552696487,0.0170857,-0.0560077,0.0100222
1775801474553947057,0.0170857,-0.0560077,0.0100222
1775801474554776895,0.0170857,-0.0560077,0.0100222
1775801474555928949,0.0170857,-0.0560077,0.0100222
1775801474556654277,0.0170857,-0.0560077,0.0100222
1775801474557833258,0.0245189,-0.0524148,0.00556496
1775801474558806059,0.0245189,-0.0524148,0.00556496
1775801474559863397,0.0245189,-0.0524148,0.00556496
1775801474560631693,0.0245189,-0.0524148,0.00556496
1775801474561896236,0.0245189,-0.0524148,0.00556496
1775801474562822346,0.0246063,-0.0409155,0.00580832
1775801474563887171,0.0246063,-0.0409155,0.00580832
1775801474564786379,0.0246063,-0.0409155,0.00580832
1775801474566002356,0.0246063,-0.0409155,0.00580832
1775801474566939331,0.0238782,-0.0357169,0.00970832
1775801474567917506,0.0238782,-0.0357169,0.00970832
1775801474568999986,0.0238782,-0.0357169,0.00970832
1775801474569995054,0.0238782,-0.0357169,0.00970832
1775801474571026512,0.0238782,-0.0357169,0.00970832
1775801474571958113,0.0238782,-0.0357169,0.00970832
1775801474572989137,0.0190958,-0.0328859,0.00863196
1775801474574011111,0.0190958,-0.0328859,0.00863196
1775801474574914553,0.0190958,-0.0328859,0.00863196
1775801474576104960,0.0190958,-0.0328859,0.00863196
1775801474577006100,0.0100673,-0.0325378,0.00916359
1775801474577879501,0.0100673,-0.0325378,0.00916359
1775801474578984795,0.0100673,-0.0325378,0.00916359
1775801474579893273,0.0100673,-0.0325378,0.00916359
1775801474580843325,0.0100673,-0.0325378,0.00916359
1775801474581984663,-0.000170431,-0.0368787,0.00930931
1775801474582970129,-0.000170431,-0.0368787,0.00930931
1775801474584019656,-0.000170431,-0.0368787,0.00930931
1775801474584848195,-0.000170431,-0.0368787,0.00930931
1775801474586044674,-0.000170431,-0.0368787,0.00930931
1775801474586920290,-0.00899649,-0.041811,0.0100618
1775801474588021532,-0.00899649,-0.041811,0.0100618
1775801474588854185,-0.00899649,-0.041811,0.0100618
1775801474589928478,-0.00899649,-0.041811,0.0100618
1775801474591048366,-0.00899649,-0.041811,0.0100618
1775801474591798934,-0.00899649,-0.041811,0.0100618
1775801474592835985,-0.0104287,-0.0356501,0.0046739
1775801474593950309,-0.0104287,-0.0356501,0.0046739
1775801474594953731,-0.0104287,-0.0356501,0.0046739
1775801474595949515,-0.0104287,-0.0356501,0.0046739
1775801474596882321,-0.0104287,-0.0356501,0.0046739
1775801474598164258,-0.0105278,-0.0238302,0.00119096
1775801474598850036,-0.0105278,-0.0238302,0.00119096
1775801474600017481,-0.0105278,-0.0238302,0.00119096
1775801474600992493,-0.0105278,-0.0238302,0.00119096
1775801474601914115,-0.00826331,-0.0170521,0.00419425
1775801474602872883,-0.00826331,-0.0170521,0.00419425
1775801474604011191,-0.00826331,-0.0170521,0.00419425
1775801474604831723,-0.00826331,-0.0170521,0.00419425
1775801474606008554,-0.00826331,-0.0170521,0.00419425
1775801474606951444,-0.00826331,-0.0170521,0.00419425
1775801474608070405,-0.00371839,-0.0246401,-0.00036528
1775801474608791417,-0.00371839,-0.0246401,-0.00036528
1775801474609973347,-0.00371839,-0.0246401,-0.00036528
1775801474610881002,-0.00371839,-0.0246401,-0.00036528
1775801474611958394,0.000204919,-0.032549,-0.00612323
1775801474612829137,0.000204919,-0.032549,-0.00612323
1775801474614040909,0.000204919,-0.032549,-0.00612323
1775801474614900343,0.000204919,-0.032549,-0.00612323
1775801474616079504,0.000204919,-0.032549,-0.00612323
1775801474616773445,0.000204919,-0.032549,-0.00612323
1775801474618087828,0.00580765,-0.0336134,-0.00918607
1775801474618924086,0.00580765,-0.0336134,-0.00918607
1775801474620024150,0.00580765,-0.0336134,-0.00918607
1775801474620775925,0.00580765,-0.0336134,-0.00918607
1775801474621877735,0.00580765,-0.0336134,-0.00918607
1775801474622776531,0.0139996,-0.0323618,-0.0119579
1775801474623867642,0.0139996,-0.0323618,-0.0119579
1775801474624665748,0.0139996,-0.0323618,-0.0119579
1775801474625793979,0.0139996,-0.0323618,-0.0119579
1775801474626723839,0.0139996,-0.0323618,-0.0119579
1775801474627878627,0.0211485,-0.0259286,-0.0118233
1775801474628664287,0.0211485,-0.0259286,-0.0118233
1775801474629884385,0.0211485,-0.0259286,-0.0118233
1775801474630854681,0.0211485,-0.0259286,-0.0118233
1775801474631939282,0.0211485,-0.0259286,-0.0118233
1775801474632676281,0.022346,-0.0184173,-0.0132158
1775801474633995290,0.022346,-0.0184173,-0.0132158
1775801474634744693,0.022346,-0.0184173,-0.0132158
1775801474635865536,0.022346,-0.0184173,-0.0132158
1775801474636696358,0.022346,-0.0184173,-0.0132158
1775801474637816214,0.0192348,-0.0120875,-0.00963727
1775801474638836671,0.0192348,-0.0120875,-0.00963727
1775801474639984324,0.0192348,-0.0120875,-0.00963727
1775801474640674073,0.0192348,-0.0120875,-0.00963727
1775801474641818249,0.0192348,-0.0120875,-0.00963727
1775801474642819603,0.0192348,-0.0120875,-0.00963727
1775801474643888952,0.0164144,-0.01233,-0.0120745
1775801474644652798,0.0164144,-0.01233,-0.0120745
1775801474645991982,0.0164144,-0.01233,-0.0120745
1775801474646678355,0.0164144,-0.01233,-0.0120745
1775801474647903885,0.0160697,-0.0158583,-0.0175857
1775801474648683780,0.0160697,-0.0158583,-0.0175857
1775801474650018796,0.0160697,-0.0158583,-0.0175857
1775801474650729013,0.0160697,-0.0158583,-0.0175857
1775801474651937821,0.0208599,-0.0226855,-0.0186691
1775801474652767667,0.0208599,-0.0226855,-0.0186691
1775801474654099074,0.0208599,-0.0226855,-0.0186691
1775801474655160196,0.0208599,-0.0226855,-0.0186691
1775801474655828472,0.0208599,-0.0226855,-0.0186691
1775801474656710704,0.0208599,-0.0226855,-0.0186691
1775801474657911469,0.0235557,-0.0225262,-0.0154954
1775801474658835138,0.0235557,-0.0225262,-0.0154954
1775801474659860925,0.0235557,-0.0225262,-0.0154954
1775801474660677614,0.0235557,-0.0225262,-0.0154954
1775801474661874578,0.0232528,-0.0229339,-0.0123208
1775801474662843915,0.0232528,-0.0229339,-0.0123208
1775801474663865307,0.0232528,-0.0229339,-0.0123208
1775801474664647350,0.0232528,-0.0229339,-0.0123208
1775801474665892541,0.0232528,-0.0229339,-0.0123208
1775801474666766389,0.0232528,-0.0229339,-0.0123208
1775801474667881582,0.0250246,-0.0211098,-0.00793247
1775801474668661367,0.0250246,-0.0211098,-0.00793247
1775801474669938184,0.0250246,-0.0211098,-0.00793247
1775801474670840229,0.0250246,-0.0211098,-0.00793247
1775801474671934668,0.0250246,-0.0211098,-0.00793247
1775801474672689034,0.0250246,-0.0211098,-0.00793247
1775801474673931396,0.0224758,-0.0121147,-0.00587701
1775801474674902894,0.0224758,-0.0121147,-0.00587701
1775801474675929804,0.0224758,-0.0121147,-0.00587701
1775801474676724063,0.0224758,-0.0121147,-0.00587701
1775801474677945620,0.0224758,-0.0121147,-0.00587701
1775801474678821542,0.0231085,-0.00823701,-0.00374211
1775801474679929414,0.0231085,-0.00823701,-0.00374211
1775801474680686753,0.0231085,-0.00823701,-0.00374211
1775801474681934049,0.0231085,-0.00823701,-0.00374211
1775801474682795967,0.0231085,-0.00823701,-0.00374211
1775801474683865632,0.0169731,-0.00773327,-0.00516057
1775801474684749350,0.0169731,-0.00773327,-0.00516057
1775801474685893178,0.0169731,-0.00773327,-0.00516057
1775801474686842956,0.0169731,-0.00773327,-0.00516057
1775801474688079036,0.0169731,-0.00773327,-0.00516057
1775801474688686099,0.0108507,-0.00888254,0.00121344
1775801474689907602,0.0108507,-0.00888254,0.00121344
1775801474690724709,0.0108507,-0.00888254,0.00121344
1775801474691873216,0.0108507,-0.00888254,0.00121344
1775801474692713568,0.0108507,-0.00888254,0.00121344
1775801474693908693,0.00297587,-0.00793671,0.0102992
1775801474694753620,0.00297587,-0.00793671,0.0102992
1775801474695855890,0.00297587,-0.00793671,0.0102992
1775801474696670010,0.00297587,-0.00793671,0.0102992
1775801474697964147,0.00297587,-0.00793671,0.0102992
1775801474698806148,-0.000717592,-0.00952273,0.012526
1775801474699866635,-0.000717592,-0.00952273,0.012526
1775801474700675444,-0.000717592,-0.00952273,0.012526
1775801474701926144,-0.000717592,-0.00952273,0.012526
1775801474702795760,-0.000717592,-0.00952273,0.012526
1775801474703902725,-0.00482924,-0.0113493,0.0144909
1775801474704742344,-0.00482924,-0.0113493,0.0144909
1775801474705931301,-0.00482924,-0.0113493,0.0144909
1775801474706719595,-0.00482924,-0.0113493,0.0144909
1775801474707887114,-0.0087146,-0.00607718,0.013074
1775801474708683503,-0.0087146,-0.00607718,0.013074
1775801474709695077,-0.0087146,-0.00607718,0.013074
1775801474710713807,-0.0087146,-0.00607718,0.013074
1775801474711706431,-0.0087146,-0.00607718,0.013074
1775801474712684274,-0.00797661,-0.00656279,0.00368439
1775801474713697474,-0.00797661,-0.00656279,0.00368439
1775801474714679006,-0.00797661,-0.00656279,0.00368439
1775801474715715869,-0.00797661,-0.00656279,0.00368439
1775801474716692574,-0.00797661,-0.00656279,0.00368439
1775801474717722815,-0.00510402,-0.00963788,0.00212311
1775801474718720405,-0.00510402,-0.00963788,0.00212311
1775801474719712278,-0.00510402,-0.00963788,0.00212311
1775801474720667539,-0.00510402,-0.00963788,0.00212311
1775801474721945524,-0.00510402,-0.00963788,0.00212311
1775801474722696122,-0.00922988,-0.0069646,0.00493808
1775801474723951972,-0.00922988,-0.0069646,0.00493808
1775801474724694722,-0.00922988,-0.0069646,0.00493808
1775801474725914610,-0.00922988,-0.0069646,0.00493808
1775801474726842016,-0.00922988,-0.0069646,0.00493808
1775801474727915133,-0.00435826,-0.0059086,0.00738522
1775801474728738528,-0.00435826,-0.0059086,0.00738522
1775801474730010065,-0.00435826,-0.0059086,0.00738522
1775801474730746325,-0.00435826,-0.0059086,0.00738522
1775801474731879968,-0.00435826,-0.0059086,0.00738522
1775801474732688903,0.00642508,-0.00891577,0.0130528
1775801474733905325,0.00642508,-0.00891577,0.0130528
1775801474734950217,0.00642508,-0.00891577,0.0130528
1775801474736017148,0.00642508,-0.00891577,0.0130528
1775801474736809180,0.00642508,-0.00891577,0.0130528
1775801474738038002,0.0119416,-0.0129275,0.0147731
1775801474739095621,0.0119416,-0.0129275,0.0147731
1775801474739901772,0.0119416,-0.0129275,0.0147731
1775801474740883978,0.0119416,-0.0129275,0.0147731
1775801474741917040,0.0119416,-0.0129275,0.0147731
1775801474742681719,0.0124072,-0.0158744,0.0160803
1775801474744048425,0.0124072,-0.0158744,0.0160803
1775801474744669117,0.0124072,-0.0158744,0.0160803
1775801474746244094,0.0124072,-0.0158744,0.0160803
1775801474746699903,0.0124072,-0.0158744,0.0160803
1775801474747920955,0.00735648,-0.014153,0.0168376
1775801474748668725,0.00735648,-0.014153,0.0168376
1775801474749906208,0.00735648,-0.014153,0.0168376
1775801474750728557,0.00735648,-0.014153,0.0168376
1775801474752054063,0.00735648,-0.014153,0.0168376
1775801474752691143,0.00536595,-0.0151783,0.0138329
1775801474753938372,0.00536595,-0.0151783,0.0138329
1775801474754807541,0.00536595,-0.0151783,0.0138329
1775801474755827393,0.00536595,-0.0151783,0.0138329
1775801474756685825,0.00536595,-0.0151783,0.0138329
1775801474757864929,0.00381857,-0.0185106,0.014779
1775801474758733766,0.00381857,-0.0185106,0.014779
1775801474759883821,0.00381857,-0.0185106,0.014779
1775801474760688759,0.00381857,-0.0185106,0.014779
1775801474761883299,0.00381857,-0.0185106,0.014779
1775801474762837174,-0.000121929,-0.0201998,0.0184984
1775801474763905627,-0.000121929,-0.0201998,0.0184984
1775801474764691820,-0.000121929,-0.0201998,0.0184984
1775801474765884060,-0.000121929,-0.0201998,0.0184984
1775801474766824210,-0.000121929,-0.0201998,0.0184984
1775801474768011338,0.000268187,-0.0215612,0.0179247
1775801474768683620,0.000268187,-0.0215612,0.0179247
1775801474769923738,0.000268187,-0.0215612,0.0179247
1775801474770735024,0.000268187,-0.0215612,0.0179247
1775801474771886565,0.000268187,-0.0215612,0.0179247
1775801474772693414,0.0027098,-0.0221096,0.01892
1775801474773894327,0.0027098,-0.0221096,0.01892
1775801474774853123,0.0027098,-0.0221096,0.01892
1775801474775911096,0.0027098,-0.0221096,0.01892
1775801474776941451,0.00282297,-0.0230882,0.0199889
1775801474777927062,0.00282297,-0.0230882,0.0199889
1775801474778777472,0.00282297,-0.0230882,0.0199889
1775801474779857290,0.00282297,-0.0230882,0.0199889
1775801474780637142,0.00282297,-0.0230882,0.0199889
1775801474781854039,0.00282297,-0.0230882,0.0199889
1775801474782669335,0.00120838,-0.018533,0.0253343
1775801474783767874,0.00120838,-0.018533,0.0253343
1775801474784663599,0.00120838,-0.018533,0.0253343
1775801474785988384,0.00120838,-0.018533,0.0253343
1775801474786818702,0.00120838,-0.018533,0.0253343
1775801474787914399,0.00371232,-0.0128981,0.0245174
1775801474788673066,0.00371232,-0.0128981,0.0245174
1775801474790004180,0.00371232,-0.0128981,0.0245174
1775801474790812014,0.00371232,-0.0128981,0.0245174
1775801474791892739,0.00371232,-0.0128981,0.0245174
1775801474792701752,-0.00355269,-0.00946043,0.0258119
1775801474793857702,-0.00355269,-0.00946043,0.0258119
1775801474794694243,-0.00355269,-0.00946043,0.0258119
1775801474796002391,-0.00355269,-0.00946043,0.0258119
1775801474796757060,-0.00355269,-0.00946043,0.0258119
1775801474797907241,-0.00759946,-0.0164971,0.0260769
1775801474798913026,-0.00759946,-0.0164971,0.0260769
1775801474799879958,-0.00759946,-0.0164971,0.0260769
1775801474800793061,-0.00759946,-0.0164971,0.0260769
1775801474801970996,-0.0112038,-0.0186888,0.029339
1775801474802774165,-0.0112038,-0.0186888,0.029339
1775801474803764616,-0.0112038,-0.0186888,0.029339
1775801474804831683,-0.0112038,-0.0186888,0.029339
1775801474805839565,-0.0112038,-0.0186888,0.029339
1775801474806878234,-0.0151266,-0.0195259,0.0315079
1775801474807922473,-0.0151266,-0.0195259,0.0315079
1775801474808835287,-0.0151266,-0.0195259,0.0315079
1775801474809838415,-0.0151266,-0.0195259,0.0315079
1775801474810913807,-0.0151266,-0.0195259,0.0315079
1775801474811836859,-0.014012,-0.0147157,0.027546
1775801474812780473,-0.014012,-0.0147157,0.027546
1775801474813855858,-0.014012,-0.0147157,0.027546
1775801474814847319,-0.014012,-0.0147157,0.027546
1775801474815844525,-0.014012,-0.0147157,0.027546
1775801474816747980,-0.014012,-0.0147157,0.027546
1775801474817880706,-0.0166413,-0.0113602,0.022515
1775801474818866572,-0.0166413,-0.0113602,0.022515
1775801474819889405,-0.0166413,-0.0113602,0.022515
1775801474820813072,-0.0166413,-0.0113602,0.022515
1775801474821807453,-0.0166413,-0.0113602,0.022515
1775801474822851952,-0.0141857,-0.0111532,0.0204126
1775801474823894746,-0.0141857,-0.0111532,0.0204126
1775801474824678890,-0.0141857,-0.0111532,0.0204126
1775801474825850918,-0.0141857,-0.0111532,0.0204126
1775801474826732786,-0.0141857,-0.0111532,0.0204126
1775801474827857986,-0.0101938,-0.00975779,0.0207891
1775801474828825256,-0.0101938,-0.00975779,0.0207891
1775801474829854661,-0.0101938,-0.00975779,0.0207891
1775801474830823139,-0.0101938,-0.00975779,0.0207891
1775801474832029300,-0.00167417,-0.0140383,0.0167314
1775801474832708083,-0.00167417,-0.0140383,0.0167314
1775801474833870788,-0.00167417,-0.0140383,0.0167314
1775801474834757656,-0.00167417,-0.0140383,0.0167314
1775801474835966706,-0.00167417,-0.0140383,0.0167314
1775801474836701347,-0.00167417,-0.0140383,0.0167314
1775801474837946911,0.00557231,-0.0182563,0.0105431
1775801474838758902,0.00557231,-0.0182563,0.0105431
1775801474839874034,0.00557231,-0.0182563,0.0105431
1775801474840695198,0.00557231,-0.0182563,0.0105431
1775801474842000919,0.00739615,-0.0223723,0.00165726
1775801474842732486,0.00739615,-0.0223723,0.00165726
1775801474843773869,0.00739615,-0.0223723,0.00165726
1775801474844676542,0.00739615,-0.0223723,0.00165726
1775801474845858104,0.00739615,-0.0223723,0.00165726
1775801474846835651,0.00739615,-0.0223723,0.00165726
1775801474847973753,0.00897745,-0.0197874,-0.00359458
1775801474848674086,0.00897745,-0.0197874,-0.00359458
1775801474849792401,0.00897745,-0.0197874,-0.00359458
1775801474850799147,0.00897745,-0.0197874,-0.00359458
1775801474851787469,0.00897745,-0.0197874,-0.00359458
1775801474852655159,0.0123872,-0.0243916,-0.0202904
1775801474853799896,0.0123872,-0.0243916,-0.0202904
1775801474854831619,0.0123872,-0.0243916,-0.0202904
1775801474855873070,0.0123872,-0.0243916,-0.0202904
1775801474856854410,0.0147738,-0.0278756,-0.0283503
1775801474858059062,0.0147738,-0.0278756,-0.0283503
1775801474858944209,0.0147738,-0.0278756,-0.0283503
1775801474860031682,0.0147738,-0.0278756,-0.0283503
1775801474860825235,0.0147738,-0.0278756,-0.0283503
1775801474862030883,0.023146,-0.0303518,-0.036296
1775801474862867653,0.023146,-0.0303518,-0.036296
1775801474863914160,0.023146,-0.0303518,-0.036296
1775801474864708027,0.023146,-0.0303518,-0.036296
1775801474865852651,0.023146,-0.0303518,-0.036296
1775801474866880120,0.0255318,-0.031002,-0.0406803
1775801474867906383,0.0255318,-0.031002,-0.0406803
1775801474868754937,0.0255318,-0.031002,-0.0406803
1775801474870053476,0.0255318,-0.031002,-0.0406803
1775801474870924754,0.0255318,-0.031002,-0.0406803
1775801474871881272,0.0262693,-0.0314807,-0.0397433
1775801474872799475,0.0262693,-0.0314807,-0.0397433
1775801474873976876,0.0262693,-0.0314807,-0.0397433
1775801474874998694,0.0262693,-0.0314807,-0.0397433
1775801474875885314,0.0262693,-0.0314807,-0.0397433
1775801474876837788,0.0262693,-0.0314807,-0.0397433
1775801474877918465,0.0244312,-0.0313178,-0.0433475
1775801474878843316,0.0244312,-0.0313178,-0.0433475
1775801474879873245,0.0244312,-0.0313178,-0.0433475
1775801474880991988,0.0244312,-0.0313178,-0.0433475
1775801474881889238,0.0199063,-0.0370286,-0.0388946
1775801474882967449,0.0199063,-0.0370286,-0.0388946
1775801474883866878,0.0199063,-0.0370286,-0.0388946
1775801474884793011,0.0199063,-0.0370286,-0.0388946
1775801474885753990,0.0199063,-0.0370286,-0.0388946
1775801474886822788,0.0199063,-0.0370286,-0.0388946
1775801474887882025,0.0170924,-0.0391814,-0.0291898
1775801474888953688,0.0170924,-0.0391814,-0.0291898
1775801474889806699,0.0170924,-0.0391814,-0.0291898
1775801474890836303,0.0170924,-0.0391814,-0.0291898
1775801474891781690,0.0170924,-0.0391814,-0.0291898
1775801474892737664,0.0103314,-0.0409839,-0.0216306
1775801474893831344,0.0103314,-0.0409839,-0.0216306
1775801474894902901,0.0103314,-0.0409839,-0.0216306
1775801474895901106,0.0103314,-0.0409839,-0.0216306
1775801474896798391,0.00230465,-0.0406732,-0.020438
1775801474897826650,0.00230465,-0.0406732,-0.020438
1775801474898796524,0.00230465,-0.0406732,-0.020438
1775801474899855129,0.00230465,-0.0406732,-0.020438
1775801474900749324,0.00230465,-0.0406732,-0.020438
1775801474901823806,0.00230465,-0.0406732,-0.020438
1775801474902851751,-0.00561877,-0.0361439,-0.0199039
1775801474903908731,-0.00561877,-0.0361439,-0.0199039
1775801474904772324,-0.00561877,-0.0361439,-0.0199039
1775801474905858744,-0.00561877,-0.0361439,-0.0199039
1775801474906910192,-0.00561877,-0.0361439,-0.0199039
1775801474907875811,-0.012859,-0.0306373,-0.0160441
1775801474908853926,-0.012859,-0.0306373,-0.0160441
1775801474909875162,-0.012859,-0.0306373,-0.0160441
1775801474910808604,-0.012859,-0.0306373,-0.0160441
1775801474911983232,-0.011971,-0.0290488,-0.013852
1775801474912834964,-0.011971,-0.0290488,-0.013852
1775801474913984721,-0.011971,-0.0290488,-0.013852
1775801474914815419,-0.011971,-0.0290488,-0.013852
1775801474915819601,-0.011971,-0.0290488,-0.013852
1775801474916755253,-0.011971,-0.0290488,-0.013852
1775801474917853093,-0.011971,-0.0290488,-0.013852
1775801474918871703,-0.0100084,-0.0294942,-0.0133464
1775801474920106773,-0.0100084,-0.0294942,-0.0133464
1775801474920869422,-0.0100084,-0.0294942,-0.0133464
1775801474921892642,-0.0100084,-0.0294942,-0.0133464
1775801474922935017,-0.00316276,-0.0332624,-0.0189018
1775801474923787471,-0.00316276,-0.0332624,-0.0189018
1775801474924801300,-0.00316276,-0.0332624,-0.0189018
1775801474926838102,-0.00316276,-0.0332624,-0.0189018
1775801474927024596,0.0069665,-0.0302888,-0.0259033
1775801474927870836,0.0069665,-0.0302888,-0.0259033
1775801474928802094,0.0069665,-0.0302888,-0.0259033
1775801474929843686,0.0069665,-0.0302888,-0.0259033
1775801474930725829,0.0069665,-0.0302888,-0.0259033
1775801474931895459,0.0168327,-0.0250295,-0.0320852
1775801474932778855,0.0168327,-0.0250295,-0.0320852
1775801474933899230,0.0168327,-0.0250295,-0.0320852
1775801474934737237,0.0168327,-0.0250295,-0.0320852
1775801474935765184,0.0168327,-0.0250295,-0.0320852
1775801474936750845,0.0168327,-0.0250295,-0.0320852
1775801474937667222,0.0168327,-0.0250295,-0.0320852
1775801474938824890,0.0187885,-0.0212201,-0.0313284
1775801474939778731,0.0187885,-0.0212201,-0.0313284
1775801474940618867,0.0187885,-0.0212201,-0.0313284
1775801474941811093,0.0197008,-0.0285137,-0.0336317
1775801474942748695,0.0197008,-0.0285137,-0.0336317
1775801474943682658,0.0197008,-0.0285137,-0.0336317
1775801474944617465,0.0197008,-0.0285137,-0.0336317
1775801474945816390,0.0197008,-0.0285137,-0.0336317
1775801474946768154,0.0197008,-0.0285137,-0.0336317
1775801474947832355,0.0218237,-0.0376476,-0.0406908
1775801474948618384,0.0218237,-0.0376476,-0.0406908
1775801474949832012,0.0218237,-0.0376476,-0.0406908
1775801474950671800,0.0218237,-0.0376476,-0.0406908
1775801474951797465,0.0218237,-0.0376476,-0.0406908
1775801474952615436,0.0171299,-0.043676,-0.04465
1775801474953680808,0.0171299,-0.043676,-0.04465
1775801474954669899,0.0171299,-0.043676,-0.04465
1775801474955676459,0.0171299,-0.043676,-0.04465
1775801474956652307,0.0171299,-0.043676,-0.04465
1775801474957673309,0.0171299,-0.043676,-0.04465
1775801474958682269,0.00989226,-0.0420705,-0.0421904
1775801474959778530,0.00989226,-0.0420705,-0.0421904
1775801474960672283,0.00989226,-0.0420705,-0.0421904
1775801474961704970,0.00989226,-0.0420705,-0.0421904
1775801474962700780,0.00590068,-0.0364883,-0.0353129
1775801474963713906,0.00590068,-0.0364883,-0.0353129
1775801474964700160,0.00590068,-0.0364883,-0.0353129
1775801474965701414,0.00590068,-0.0364883,-0.0353129
1775801474966685004,0.00590068,-0.0364883,-0.0353129
1775801474967710766,0.00590068,-0.0364883,-0.0353129
1775801474968680863,0.00116886,-0.0325299,-0.0264331
1775801474969699193,0.00116886,-0.0325299,-0.0264331
1775801474970734764,0.00116886,-0.0325299,-0.0264331
1775801474971776272,0.00116886,-0.0325299,-0.0264331
1775801474972723288,0.00116886,-0.0325299,-0.0264331
1775801474973700976,-0.0043499,-0.0288773,-0.0132952
1775801474974704944,-0.0043499,-0.0288773,-0.0132952
1775801474975710030,-0.0043499,-0.0288773,-0.0132952
1775801474976695725,-0.0043499,-0.0288773,-0.0132952
1775801474977699952,-0.0130084,-0.0281657,-0.00184645
1775801474978749025,-0.0130084,-0.0281657,-0.00184645
1775801474979709851,-0.0130084,-0.0281657,-0.00184645
1775801474980668598,-0.0130084,-0.0281657,-0.00184645
1775801474981745893,-0.0130084,-0.0281657,-0.00184645
1775801474982700068,-0.0152141,-0.0284685,0.00961676
1775801474983730488,-0.0152141,-0.0284685,0.00961676
1775801474984692062,-0.0152141,-0.0284685,0.00961676
1775801474985685308,-0.0152141,-0.0284685,0.00961676
1775801474986714582,-0.0152141,-0.0284685,0.00961676
1775801474987722665,-0.0161852,-0.0317775,0.020033
1775801474988636438,-0.0161852,-0.0317775,0.020033
1775801474989659042,-0.0161852,-0.0317775,0.020033
1775801474990666544,-0.0161852,-0.0317775,0.020033
1775801474991678468,-0.0161852,-0.0317775,0.020033
1775801474992630551,-0.0161852,-0.0317775,0.020033
1775801474993705161,-0.0175133,-0.0333927,0.0219712
1775801474994672374,-0.0175133,-0.0333927,0.0219712
1775801474995651391,-0.0175133,-0.0333927,0.0219712
1775801474996651775,-0.0175133,-0.0333927,0.0219712
1775801474997691688,-0.0275392,-0.0333428,0.0212527
1775801474998687010,-0.0275392,-0.0333428,0.0212527
1775801474999708014,-0.0275392,-0.0333428,0.0212527
1775801475000677713,-0.0275392,-0.0333428,0.0212527
1775801475001724776,-0.0275392,-0.0333428,0.0212527
1775801475002729930,-0.0234006,-0.0349808,0.0224643
1775801475003722747,-0.0234006,-0.0349808,0.0224643
1775801475004691440,-0.0234006,-0.0349808,0.0224643
1775801475005733327,-0.0234006,-0.0349808,0.0224643
1775801475006725069,-0.0234006,-0.0349808,0.0224643
1775801475007727233,-0.0235115,-0.0411462,0.0239525
1775801475008709489,-0.0235115,-0.0411462,0.0239525
1775801475009716844,-0.0235115,-0.0411462,0.0239525
1775801475010839931,-0.0235115,-0.0411462,0.0239525
1775801475011754700,-0.0235115,-0.0411462,0.0239525
1775801475012724946,-0.0253079,-0.0467669,0.022508
1775801475013724645,-0.0253079,-0.0467669,0.022508
1775801475014716776,-0.0253079,-0.0467669,0.022508
1775801475015844556,-0.0253079,-0.0467669,0.022508
1775801475017090478,-0.0253079,-0.0467669,0.022508
1775801475017771290,-0.0286456,-0.0395038,0.0178304
1775801475018888231,-0.0286456,-0.0395038,0.0178304
1775801475019791859,-0.0286456,-0.0395038,0.0178304
1775801475020749390,-0.0286456,-0.0395038,0.0178304
1775801475021796912,-0.0286456,-0.0395038,0.0178304
1775801475022864840,-0.025376,-0.0359707,0.00760717
1775801475023812784,-0.025376,-0.0359707,0.00760717
1775801475024767341,-0.025376,-0.0359707,0.00760717
1775801475025832494,-0.025376,-0.0359707,0.00760717
1775801475026907821,-0.025376,-0.0359707,0.00760717
1775801475027822219,-0.0220241,-0.0286765,0.00245254
1775801475028901349,-0.0220241,-0.0286765,0.00245254
1775801475029831951,-0.0220241,-0.0286765,0.00245254
1775801475030949930,-0.0220241,-0.0286765,0.00245254
1775801475031819771,-0.0220241,-0.0286765,0.00245254
1775801475032928768,-0.0195551,-0.0234361,0.00259688
1775801475033843513,-0.0195551,-0.0234361,0.00259688
1775801475035065437,-0.0195551,-0.0234361,0.00259688
1775801475035755907,-0.0195551,-0.0234361,0.00259688
1775801475036888712,-0.0140179,-0.0250693,0.00236759
1775801475037695891,-0.0140179,-0.0250693,0.00236759
1775801475038783784,-0.0140179,-0.0250693,0.00236759
1775801475039790818,-0.0140179,-0.0250693,0.00236759
1775801475040801747,-0.0140179,-0.0250693,0.00236759
1775801475041807541,-0.00849954,-0.0247765,-0.00617724
1775801475042878105,-0.00849954,-0.0247765,-0.00617724
1775801475043729114,-0.00849954,-0.0247765,-0.00617724
1775801475044858198,-0.00849954,-0.0247765,-0.00617724
1775801475045857072,-0.00849954,-0.0247765,-0.00617724
1775801475046909660,-0.00849954,-0.0247765,-0.00617724
1775801475047820127,-0.00258143,-0.0244085,-0.00930582
1775801475048825980,-0.00258143,-0.0244085,-0.00930582
1775801475049804398,-0.00258143,-0.0244085,-0.00930582
1775801475050883202,-0.00258143,-0.0244085,-0.00930582
1775801475051859538,-0.00258143,-0.0244085,-0.00930582
1775801475052820724,0.00273088,-0.0236714,-0.00770751
1775801475053845241,0.00273088,-0.0236714,-0.00770751
1775801475054821608,0.00273088,-0.0236714,-0.00770751
1775801475055809744,0.00273088,-0.0236714,-0.00770751
1775801475056805452,0.00136319,-0.0269299,-0.00293584
1775801475057823489,0.00136319,-0.0269299,-0.00293584
1775801475058954993,0.00136319,-0.0269299,-0.00293584
1775801475059822549,0.00136319,-0.0269299,-0.00293584
1775801475060883278,0.00136319,-0.0269299,-0.00293584
1775801475061860762,0.00799727,-0.0316109,0.0024103
1775801475062963158,0.00799727,-0.0316109,0.0024103
1775801475063898058,0.00799727,-0.0316109,0.0024103
1775801475064894732,0.00799727,-0.0316109,0.0024103
1775801475065768939,0.00799727,-0.0316109,0.0024103
1775801475066942950,0.00799727,-0.0316109,0.0024103
1775801475067786454,0.00938155,-0.0358323,0.000771017
1775801475068916729,0.00938155,-0.0358323,0.000771017
1775801475069847410,0.00938155,-0.0358323,0.000771017
1775801475070891470,0.00938155,-0.0358323,0.000771017
1775801475071843219,0.00237375,-0.0315162,0.00194098
1775801475072834798,0.00237375,-0.0315162,0.00194098
1775801475073712758,0.00237375,-0.0315162,0.00194098
1775801475074810038,0.00237375,-0.0315162,0.00194098
1775801475075836904,0.00237375,-0.0315162,0.00194098
1775801475076823735,0.00237375,-0.0315162,0.00194098
1775801475077835800,-0.00518066,-0.0340865,0.00355438
1775801475078904970,-0.00518066,-0.0340865,0.00355438
1775801475079799267,-0.00518066,-0.0340865,0.00355438
1775801475080838769,-0.00518066,-0.0340865,0.00355438
1775801475081843308,-0.00518066,-0.0340865,0.00355438
1775801475082876848,-0.00395411,-0.0372652,0.00547836
1775801475083790837,-0.00395411,-0.0372652,0.00547836
1775801475084891342,-0.00395411,-0.0372652,0.00547836
1775801475085774391,-0.00395411,-0.0372652,0.00547836
1775801475086927064,-0.00375014,-0.0308762,0.00897103
1775801475087715670,-0.00375014,-0.0308762,0.00897103
1775801475088837269,-0.00375014,-0.0308762,0.00897103
1775801475089656353,-0.00375014,-0.0308762,0.00897103
1775801475090740016,-0.00375014,-0.0308762,0.00897103
1775801475091804621,-0.00375014,-0.0308762,0.00897103
1775801475092724162,-0.00195503,-0.0313574,0.010782
1775801475093773775,-0.00195503,-0.0313574,0.010782
1775801475094746525,-0.00195503,-0.0313574,0.010782
1775801475095660442,-0.00195503,-0.0313574,0.010782
1775801475096747891,-0.00195503,-0.0313574,0.010782
1775801475097763656,0.00110444,-0.0375449,0.0114349
1775801475098810058,0.00110444,-0.0375449,0.0114349
1775801475099689564,0.00110444,-0.0375449,0.0114349
1775801475100792098,0.00110444,-0.0375449,0.0114349
1775801475101928885,0.00110444,-0.0375449,0.0114349
1775801475102846702,0.00376745,-0.0499575,0.0143062
1775801475103875717,0.00376745,-0.0499575,0.0143062
1775801475104776785,0.00376745,-0.0499575,0.0143062
1775801475105830345,0.00376745,-0.0499575,0.0143062
1775801475106832343,0.00376745,-0.0499575,0.0143062
1775801475107893067,0.00704233,-0.0531602,0.0170085
1775801475108712552,0.00704233,-0.0531602,0.0170085
1775801475109766678,0.00704233,-0.0531602,0.0170085
1775801475110683392,0.00704233,-0.0531602,0.0170085
1775801475111707351,0.00704233,-0.0531602,0.0170085
1775801475112660795,0.00872539,-0.0460194,0.0101489
1775801475113794203,0.00872539,-0.0460194,0.0101489
1775801475114796066,0.00872539,-0.0460194,0.0101489
1775801475115660074,0.00872539,-0.0460194,0.0101489
1775801475116641565,0.00872539,-0.0460194,0.0101489
1775801475117755214,0.00693489,-0.0313937,-0.000214361
1775801475118800987,0.00693489,-0.0313937,-0.000214361
1775801475119783733,0.00693489,-0.0313937,-0.000214361
1775801475120739117,0.00693489,-0.0313937,-0.000214361
1775801475121745730,0.00693489,-0.0313937,-0.000214361
1775801475122727861,0.00957563,-0.0191338,-0.00370601
1775801475123811876,0.00957563,-0.0191338,-0.00370601
1775801475124716807,0.00957563,-0.0191338,-0.00370601
1775801475125787394,0.00957563,-0.0191338,-0.00370601
1775801475126644432,0.00957563,-0.0191338,-0.00370601
1775801475127723821,0.00964902,-0.0185327,-0.00607132
1775801475128616930,0.00964902,-0.0185327,-0.00607132
1775801475129723252,0.00964902,-0.0185327,-0.00607132
1775801475130737891,0.00964902,-0.0185327,-0.00607132
1775801475131736089,0.00964902,-0.0185327,-0.00607132
1775801475132647168,0.00964902,-0.0185327,-0.00607132
1775801475133639134,0.0098794,-0.0227517,-0.0145197
1775801475134650916,0.0098794,-0.0227517,-0.0145197
1775801475135772846,0.0098794,-0.0227517,-0.0145197
1775801475136613355,0.0098794,-0.0227517,-0.0145197
1775801475137739214,0.0123792,-0.0326537,-0.0187388
1775801475138739904,0.0123792,-0.0326537,-0.0187388
1775801475139617816,0.0123792,-0.0326537,-0.0187388
1775801475140606704,0.0123792,-0.0326537,-0.0187388
1775801475141734210,0.0123792,-0.0326537,-0.0187388
1775801475142720553,0.0152008,-0.0348247,-0.0209818
1775801475143706259,0.0152008,-0.0348247,-0.0209818
1775801475144727957,0.0152008,-0.0348247,-0.0209818
1775801475145592732,0.0152008,-0.0348247,-0.0209818
1775801475146626442,0.0152008,-0.0348247,-0.0209818
1775801475147618175,0.0152008,-0.0348247,-0.0209818
1775801475148637766,0.0179714,-0.033601,-0.0195012
1775801475149727923,0.0179714,-0.033601,-0.0195012
1775801475150689968,0.0179714,-0.033601,-0.0195012
1775801475151766521,0.0179714,-0.033601,-0.0195012
1775801475152734464,0.0152253,-0.0241006,-0.0253179
1775801475153695996,0.0152253,-0.0241006,-0.0253179
1775801475154693146,0.0152253,-0.0241006,-0.0253179
1775801475155677894,0.0152253,-0.0241006,-0.0253179
1775801475156696160,0.0152253,-0.0241006,-0.0253179
1775801475157706198,0.010713,-0.0153669,-0.0301075
1775801475158740209,0.010713,-0.0153669,-0.0301075
1775801475159686627,0.010713,-0.0153669,-0.0301075
1775801475160739151,0.010713,-0.0153669,-0.0301075
1775801475161716627,0.010713,-0.0153669,-0.0301075
1775801475162708980,0.0186776,-0.0124514,-0.0245265
1775801475163671574,0.0186776,-0.0124514,-0.0245265
1775801475164694672,0.0186776,-0.0124514,-0.0245265
1775801475165644351,0.0186776,-0.0124514,-0.0245265
1775801475166702878,0.0186776,-0.0124514,-0.0245265
1775801475167673997,0.0236884,-0.0175152,-0.0248558
1775801475168699428,0.0236884,-0.0175152,-0.0248558
1775801475169758349,0.0236884,-0.0175152,-0.0248558
1775801475170809365,0.0236884,-0.0175152,-0.0248558
1775801475171637699,0.0236884,-0.0175152,-0.0248558
1775801475172689838,0.0195899,-0.0247598,-0.0240366
1775801475173597566,0.0195899,-0.0247598,-0.0240366
1775801475174718266,0.0195899,-0.0247598,-0.0240366
1775801475175714833,0.0195899,-0.0247598,-0.0240366
1775801475176618237,0.0195899,-0.0247598,-0.0240366
1775801475177734776,0.0204882,-0.0272303,-0.0241764
1775801475178857896,0.0204882,-0.0272303,-0.0241764
1775801475179587502,0.0204882,-0.0272303,-0.0241764
1775801475180619751,0.0204882,-0.0272303,-0.0241764
1775801475181544674,0.0204882,-0.0272303,-0.0241764
1775801475182639132,0.0188348,-0.01902,-0.0217791
1775801475183631371,0.0188348,-0.01902,-0.0217791
1775801475184671625,0.0188348,-0.01902,-0.0217791
1775801475185776614,0.0188348,-0.01902,-0.0217791
1775801475186836052,0.0188348,-0.01902,-0.0217791
1775801475187811510,0.0171532,-0.0183077,-0.0179244
1775801475188649594,0.0171532,-0.0183077,-0.0179244
1775801475189825212,0.0171532,-0.0183077,-0.0179244
1775801475190732879,0.0171532,-0.0183077,-0.0179244
1775801475191702588,0.0171532,-0.0183077,-0.0179244
1775801475192779967,0.0127347,-0.0209974,-0.0149223
1775801475193616846,0.0127347,-0.0209974,-0.0149223
1775801475194693628,0.0127347,-0.0209974,-0.0149223
1775801475195793101,0.0127347,-0.0209974,-0.0149223
1775801475196608392,0.0118559,-0.0292838,-0.0124341
1775801475197847264,0.0118559,-0.0292838,-0.0124341
1775801475198946427,0.0118559,-0.0292838,-0.0124341
1775801475199765894,0.0118559,-0.0292838,-0.0124341
1775801475200731064,0.0118559,-0.0292838,-0.0124341
1775801475201779703,0.0118559,-0.0292838,-0.0124341
1775801475202892361,0.0110073,-0.0324766,-0.00915909
1775801475203903052,0.0110073,-0.0324766,-0.00915909
1775801475204788274,0.0110073,-0.0324766,-0.00915909
1775801475205814195,0.0110073,-0.0324766,-0.00915909
1775801475206822613,0.0110073,-0.0324766,-0.00915909
1775801475207745986,0.00950548,-0.0310375,-0.00107533
1775801475208735677,0.00950548,-0.0310375,-0.00107533
1775801475209842031,0.00950548,-0.0310375,-0.00107533
1775801475210886812,0.00950548,-0.0310375,-0.00107533
1775801475211859362,0.00950548,-0.0310375,-0.00107533
1775801475212631105,0.0119168,-0.0300736,0.00454515
1775801475213740738,0.0119168,-0.0300736,0.00454515
1775801475214681685,0.0119168,-0.0300736,0.00454515
1775801475215776654,0.0119168,-0.0300736,0.00454515
1775801475216616284,0.0119168,-0.0300736,0.00454515
1775801475217673689,0.00691035,-0.0305026,0.00989523
1775801475218630267,0.00691035,-0.0305026,0.00989523
1775801475219630180,0.00691035,-0.0305026,0.00989523
1775801475220591388,0.00691035,-0.0305026,0.00989523
1775801475221598122,0.00691035,-0.0305026,0.00989523
1775801475222658887,0.00179429,-0.0325231,0.0158071
1775801475223582082,0.00179429,-0.0325231,0.0158071
1775801475224569082,0.00179429,-0.0325231,0.0158071
1775801475225614360,0.00179429,-0.0325231,0.0158071
1775801475226587509,0.00179429,-0.0325231,0.0158071
1775801475227564944,0.00179429,-0.0325231,0.0158071
1775801475228565027,0.000982551,-0.0290778,0.0161714
1775801475229668511,0.000982551,-0.0290778,0.0161714
1775801475230669769,0.000982551,-0.0290778,0.0161714
1775801475231633030,0.000982551,-0.0290778,0.0161714
1775801475232558590,0.000982551,-0.0290778,0.0161714
1775801475233610704,-0.00739648,-0.0251441,0.0164339
1775801475234616650,-0.00739648,-0.0251441,0.0164339
1775801475235616794,-0.00739648,-0.0251441,0.0164339
1775801475236560776,-0.00739648,-0.0251441,0.0164339
1775801475237655689,-0.00830765,-0.0157905,0.0193166
1775801475238648507,-0.00830765,-0.0157905,0.0193166
1775801475239617386,-0.00830765,-0.0157905,0.0193166
1775801475240563667,-0.00830765,-0.0157905,0.0193166
1775801475241626288,-0.00830765,-0.0157905,0.0193166
1775801475242653961,-0.00447431,-0.0139256,0.0177902
1775801475243637293,-0.00447431,-0.0139256,0.0177902
1775801475244632071,-0.00447431,-0.0139256,0.0177902
1775801475245650559,-0.00447431,-0.0139256,0.0177902
1775801475246642575,-0.00447431,-0.0139256,0.0177902
1775801475247638827,-0.00447431,-0.0139256,0.0177902
1775801475248630927,-0.00411369,-0.020469,0.0124184
1775801475249630486,-0.00411369,-0.020469,0.0124184
1775801475250628864,-0.00411369,-0.020469,0.0124184
1775801475251672422,-0.00411369,-0.020469,0.0124184
1775801475252601395,-0.00549199,-0.0276096,0.014583
1775801475253651253,-0.00549199,-0.0276096,0.014583
1775801475254661719,-0.00549199,-0.0276096,0.014583
1775801475255654278,-0.00549199,-0.0276096,0.014583
1775801475256619453,-0.00549199,-0.0276096,0.014583
1775801475257703388,-0.00363119,-0.0233687,0.0170704
1775801475258695840,-0.00363119,-0.0233687,0.0170704
1775801475259687123,-0.00363119,-0.0233687,0.0170704
1775801475260668747,-0.00363119,-0.0233687,0.0170704
1775801475261703941,-0.00363119,-0.0233687,0.0170704
1775801475262695028,-0.00386107,-0.0199086,0.0192677
1775801475263671987,-0.00386107,-0.0199086,0.0192677
1775801475264687154,-0.00386107,-0.0199086,0.0192677
1775801475265683669,-0.00386107,-0.0199086,0.0192677
1775801475266735486,-0.0019171,-0.025259,0.0216995
1775801475267735120,-0.0019171,-0.025259,0.0216995
1775801475268795524,-0.0019171,-0.025259,0.0216995
1775801475269727997,-0.0019171,-0.025259,0.0216995
1775801475270800994,-0.0019171,-0.025259,0.0216995
1775801475271696552,0.000169524,-0.0309289,0.0278092
1775801475272664198,0.000169524,-0.0309289,0.0278092
1775801475273704032,0.000169524,-0.0309289,0.0278092
1775801475274738374,0.000169524,-0.0309289,0.0278092
1775801475275704381,0.000169524,-0.0309289,0.0278092
1775801475276681925,0.000169524,-0.0309289,0.0278092
1775801475277734280,6.87834e-05,-0.0313082,0.0325938
1775801475278741217,6.87834e-05,-0.0313082,0.0325938
1775801475279755610,6.87834e-05,-0.0313082,0.0325938
1775801475280761844,6.87834e-05,-0.0313082,0.0325938
1775801475281750459,0.000531139,-0.029113,0.039555
1775801475282746867,0.000531139,-0.029113,0.039555
1775801475283730179,0.000531139,-0.029113,0.039555
1775801475284809693,0.000531139,-0.029113,0.039555
1775801475285745148,0.000531139,-0.029113,0.039555
1775801475286939057,0.000531139,-0.029113,0.039555
1775801475287717621,-0.00128453,-0.0223044,0.0473469
1775801475288795646,-0.00128453,-0.0223044,0.0473469
1775801475289805967,-0.00128453,-0.0223044,0.0473469
1775801475290832208,-0.00128453,-0.0223044,0.0473469
1775801475291910170,0.00178943,-0.00889957,0.0477351
1775801475292744588,0.00178943,-0.00889957,0.0477351
1775801475293832662,0.00178943,-0.00889957,0.0477351
1775801475294688894,0.00178943,-0.00889957,0.0477351
1775801475295861877,0.00178943,-0.00889957,0.0477351
1775801475296674422,0.00178943,-0.00889957,0.0477351
1775801475297814586,0.00178943,-0.00889957,0.0477351
1775801475298707618,0.000166819,-0.00449089,0.0433123
1775801475299689541,0.000166819,-0.00449089,0.0433123
1775801475300716495,0.000166819,-0.00449089,0.0433123
1775801475301723638,0.000166819,-0.00449089,0.0433123
1775801475302814175,0.00253685,-0.00473742,0.0491718
1775801475303719978,0.00253685,-0.00473742,0.0491718
1775801475304712261,0.00253685,-0.00473742,0.0491718
1775801475305703116,0.00253685,-0.00473742,0.0491718
1775801475306717184,0.00253685,-0.00473742,0.0491718
1775801475307703774,0.00253685,-0.00473742,0.0491718
1775801475308693888,0.00624796,-0.011822,0.0531241
1775801475309730064,0.00624796,-0.011822,0.0531241
1775801475310720528,0.00624796,-0.011822,0.0531241
1775801475311731454,0.00624796,-0.011822,0.0531241
1775801475312688947,0.00624796,-0.011822,0.0531241
1775801475313754203,0.0103271,-0.0174618,0.0504164
1775801475314738992,0.0103271,-0.0174618,0.0504164
1775801475315736515,0.0103271,-0.0174618,0.0504164
1775801475316729605,0.0103271,-0.0174618,0.0504164
1775801475317731502,0.0101152,-0.0265465,0.0450049
1775801475318852090,0.0101152,-0.0265465,0.0450049
1775801475319730200,0.0101152,-0.0265465,0.0450049
1775801475320705200,0.0101152,-0.0265465,0.0450049
1775801475321728483,0.0101152,-0.0265465,0.0450049
1775801475322738009,0.00887893,-0.033269,0.0446241
1775801475323727404,0.00887893,-0.033269,0.0446241
1775801475324722637,0.00887893,-0.033269,0.0446241
1775801475325790971,0.00887893,-0.033269,0.0446241
1775801475326725699,0.00887893,-0.033269,0.0446241
1775801475327722544,0.00822326,-0.0312259,0.0449999
1775801475328703140,0.00822326,-0.0312259,0.0449999
1775801475329734953,0.00822326,-0.0312259,0.0449999
1775801475330733824,0.00822326,-0.0312259,0.0449999
1775801475331731798,0.00822326,-0.0312259,0.0449999
1775801475332739341,0.00592668,-0.0223713,0.041966
1775801475333751332,0.00592668,-0.0223713,0.041966
1775801475334724238,0.00592668,-0.0223713,0.041966
1775801475335737557,0.00592668,-0.0223713,0.041966
1775801475336688355,0.00592668,-0.0223713,0.041966
1775801475337698209,0.00246662,-0.0133411,0.0362318
1775801475338701017,0.00246662,-0.0133411,0.0362318
1775801475339676720,0.00246662,-0.0133411,0.0362318
1775801475340644044,0.00246662,-0.0133411,0.0362318
1775801475341678301,0.00246662,-0.0133411,0.0362318
1775801475342691036,-0.00441867,-0.00681958,0.0281154
1775801475343681916,-0.00441867,-0.00681958,0.0281154
1775801475344658928,-0.00441867,-0.00681958,0.0281154
1775801475345703832,-0.00441867,-0.00681958,0.0281154
1775801475346701369,-0.00441867,-0.00681958,0.0281154
1775801475347694239,-0.00484908,-0.00148274,0.0220114
1775801475348680953,-0.00484908,-0.00148274,0.0220114
1775801475349718621,-0.00484908,-0.00148274,0.0220114
1775801475350724198,-0.00484908,-0.00148274,0.0220114
1775801475351719407,-0.00484908,-0.00148274,0.0220114
1775801475352683483,-0.00415217,-0.00484196,0.0161131
1775801475353794859,-0.00415217,-0.00484196,0.0161131
1775801475354720441,-0.00415217,-0.00484196,0.0161131
1775801475355731420,-0.00415217,-0.00484196,0.0161131
1775801475356679703,-0.00415217,-0.00484196,0.0161131
1775801475357713949,0.00150472,-0.00805152,0.0172077
1775801475358698359,0.00150472,-0.00805152,0.0172077
1775801475359700240,0.00150472,-0.00805152,0.0172077
1775801475360670258,0.00150472,-0.00805152,0.0172077
1775801475361700264,0.00150472,-0.00805152,0.0172077
1775801475362698981,0.00896448,-0.0128825,0.0104541
1775801475363711017,0.00896448,-0.0128825,0.0104541
1775801475364678037,0.00896448,-0.0128825,0.0104541
1775801475365727995,0.00896448,-0.0128825,0.0104541
1775801475366728700,0.00896448,-0.0128825,0.0104541
1775801475367720932,0.0182283,-0.0160416,-0.000778277
1775801475368678916,0.0182283,-0.0160416,-0.000778277
1775801475369678893,0.0182283,-0.0160416,-0.000778277
1775801475370678426,0.0182283,-0.0160416,-0.000778277
1775801475371681140,0.0182283,-0.0160416,-0.000778277
1775801475372656412,0.0190556,-0.0185318,0.0014748
1775801475373674163,0.0190556,-0.0185318,0.0014748
1775801475374680625,0.0190556,-0.0185318,0.0014748
1775801475375717438,0.0190556,-0.0185318,0.0014748
1775801475376743622,0.0190556,-0.0185318,0.0014748
1775801475377721614,0.0185576,-0.010173,0.00125149
1775801475378717136,0.0185576,-0.010173,0.00125149
1775801475379725667,0.0185576,-0.010173,0.00125149
1775801475380704176,0.0185576,-0.010173,0.00125149
1775801475381772475,0.0185576,-0.010173,0.00125149
1775801475382790315,0.0160524,0.000828839,-0.00221782
1775801475383719990,0.0160524,0.000828839,-0.00221782
1775801475384690746,0.0160524,0.000828839,-0.00221782
1775801475385719945,0.0160524,0.000828839,-0.00221782
1775801475386688929,0.0143173,0.00479491,-0.00960715
1775801475387685559,0.0143173,0.00479491,-0.00960715
1775801475388650615,0.0143173,0.00479491,-0.00960715
1775801475389681037,0.0143173,0.00479491,-0.00960715
1775801475390673462,0.0143173,0.00479491,-0.00960715
1775801475391661721,0.0143173,0.00479491,-0.00960715
1775801475392650513,0.0127254,-0.000732619,-0.011928
1775801475393701906,0.0127254,-0.000732619,-0.011928
1775801475394737558,0.0127254,-0.000732619,-0.011928
1775801475395698022,0.0127254,-0.000732619,-0.011928
1775801475396691371,0.0104995,-0.00745057,-0.0109508
1775801475397729015,0.0104995,-0.00745057,-0.0109508
1775801475398716710,0.0104995,-0.00745057,-0.0109508
1775801475399707954,0.0104995,-0.00745057,-0.0109508
1775801475400895553,0.0104995,-0.00745057,-0.0109508
1775801475401725833,0.0104995,-0.00745057,-0.0109508
1775801475402844087,0.00612036,-0.0103886,-0.0112194
1775801475403778793,0.00612036,-0.0103886,-0.0112194
1775801475404780456,0.00612036,-0.0103886,-0.0112194
1775801475405762231,0.00612036,-0.0103886,-0.0112194
1775801475406738068,0.00612036,-0.0103886,-0.0112194
1775801475407751921,-0.00142468,-0.0121079,-0.0117911
1775801475408770380,-0.00142468,-0.0121079,-0.0117911
1775801475409769095,-0.00142468,-0.0121079,-0.0117911
1775801475410852673,-0.00142468,-0.0121079,-0.0117911
1775801475411753818,-0.00142468,-0.0121079,-0.0117911
1775801475412794059,-0.00120485,-0.0154858,-0.00848476
1775801475413781095,-0.00120485,-0.0154858,-0.00848476
1775801475414786746,-0.00120485,-0.0154858,-0.00848476
1775801475416015086,-0.00120485,-0.0154858,-0.00848476
1775801475416706442,-0.00120485,-0.0154858,-0.00848476
1775801475417927092,0.00822609,-0.02201,-0.00266742
1775801475418691026,0.00822609,-0.02201,-0.00266742
1775801475419819853,0.00822609,-0.02201,-0.00266742
1775801475420651331,0.00822609,-0.02201,-0.00266742
1775801475421908262,0.00822609,-0.02201,-0.00266742
1775801475422699721,0.0122934,-0.0295045,-0.00370647
1775801475423919144,0.0122934,-0.0295045,-0.00370647
1775801475424641326,0.0122934,-0.0295045,-0.00370647
1775801475425862768,0.0122934,-0.0295045,-0.00370647
1775801475426918820,0.00916881,-0.023329,-0.00132603
1775801475427823983,0.00916881,-0.023329,-0.00132603
1775801475428735237,0.00916881,-0.023329,-0.00132603
1775801475429736699,0.00916881,-0.023329,-0.00132603
1775801475430797957,0.00916881,-0.023329,-0.00132603
1775801475431747766,0.00916881,-0.023329,-0.00132603
1775801475432793768,0.0044966,-0.0119474,0.00182649
1775801475433750799,0.0044966,-0.0119474,0.00182649
1775801475434816579,0.0044966,-0.0119474,0.00182649
1775801475435740476,0.0044966,-0.0119474,0.00182649
1775801475436794509,0.0044966,-0.0119474,0.00182649
1775801475437761491,0.00384648,-0.00480421,0.0023781
1775801475438796194,0.00384648,-0.00480421,0.0023781
1775801475439727211,0.00384648,-0.00480421,0.0023781
1775801475440671472,0.00384648,-0.00480421,0.0023781
1775801475441699732,0.00384648,-0.00480421,0.0023781
1775801475442806524,-0.0017736,-0.00321425,-0.00145726
1775801475443739808,-0.0017736,-0.00321425,-0.00145726
1775801475444683612,-0.0017736,-0.00321425,-0.00145726
1775801475445713277,-0.0017736,-0.00321425,-0.00145726
1775801475446821647,-0.0049364,-0.00704071,-0.00285869
1775801475447757190,-0.0049364,-0.00704071,-0.00285869
1775801475448821799,-0.0049364,-0.00704071,-0.00285869
1775801475449758349,-0.0049364,-0.00704071,-0.00285869
1775801475450837765,-0.0049364,-0.00704071,-0.00285869
1775801475451762572,-0.0049364,-0.00704071,-0.00285869
1775801475452913623,-0.00382323,-0.0128209,-0.00204237
1775801475454145601,-0.00382323,-0.0128209,-0.00204237
1775801475454859751,-0.00382323,-0.0128209,-0.00204237
1775801475455690324,-0.00382323,-0.0128209,-0.00204237
1775801475456713415,-0.00382323,-0.0128209,-0.00204237
1775801475457752011,-0.00382323,-0.0128209,-0.00204237
1775801475458821577,-0.000673994,-0.0167925,0.000544281
1775801475459754345,-0.000673994,-0.0167925,0.000544281
1775801475460840883,-0.000673994,-0.0167925,0.000544281
1775801475461791295,-0.000190607,-0.0218493,0.00397937
1775801475462904400,-0.000190607,-0.0218493,0.00397937
1775801475463837117,-0.000190607,-0.0218493,0.00397937
1775801475464892505,-0.000190607,-0.0218493,0.00397937
1775801475465697431,-0.000190607,-0.0218493,0.00397937
1775801475466909506,0.000641827,-0.0268577,0.00363486
1775801475467885866,0.000641827,-0.0268577,0.00363486
1775801475468778413,0.000641827,-0.0268577,0.00363486
1775801475469798878,0.000641827,-0.0268577,0.00363486
1775801475470946343,0.000641827,-0.0268577,0.00363486
1775801475471836949,0.000641827,-0.0268577,0.00363486
1775801475472731077,0.0040614,-0.025125,0.00131353
1775801475473741451,0.0040614,-0.025125,0.00131353
1775801475474703850,0.0040614,-0.025125,0.00131353
1775801475475722340,0.0040614,-0.025125,0.00131353
1775801475476734866,0.00714611,-0.0183712,0.00438523
1775801475477714446,0.00714611,-0.0183712,0.00438523
1775801475478837344,0.00714611,-0.0183712,0.00438523
1775801475479716148,0.00714611,-0.0183712,0.00438523
1775801475480692502,0.00714611,-0.0183712,0.00438523
1775801475481702245,0.00714611,-0.0183712,0.00438523
1775801475482717586,0.00817355,-0.0113464,0.00296209
1775801475483692121,0.00817355,-0.0113464,0.00296209
1775801475484749451,0.00817355,-0.0113464,0.00296209
1775801475485721849,0.00817355,-0.0113464,0.00296209
1775801475486728024,0.00817355,-0.0113464,0.00296209
1775801475487701383,0.00878346,-0.0126575,0.00298596
1775801475488857462,0.00878346,-0.0126575,0.00298596
1775801475489791148,0.00878346,-0.0126575,0.00298596
1775801475490867546,0.00878346,-0.0126575,0.00298596
1775801475491814370,0.00878346,-0.0126575,0.00298596
1775801475492662898,0.00620932,-0.0133386,0.000896837
1775801475493677140,0.00620932,-0.0133386,0.000896837
1775801475494681233,0.00620932,-0.0133386,0.000896837
1775801475495714962,0.00620932,-0.0133386,0.000896837
1775801475496651196,0.00620932,-0.0133386,0.000896837
1775801475497739499,0.00121217,-0.0176221,0.00105551
1775801475498674829,0.00121217,-0.0176221,0.00105551
1775801475499646579,0.00121217,-0.0176221,0.00105551
1775801475500676545,0.00121217,-0.0176221,0.00105551
1775801475501773059,0.00169815,-0.0219613,0.00478658
1775801475502745164,0.00169815,-0.0219613,0.00478658
1775801475503727714,0.00169815,-0.0219613,0.00478658
1775801475504722520,0.00169815,-0.0219613,0.00478658
1775801475505720544,0.00169815,-0.0219613,0.00478658
1775801475506757520,-0.000509182,-0.0339116,0.00967249
1775801475507745947,-0.000509182,-0.0339116,0.00967249
1775801475508729021,-0.000509182,-0.0339116,0.00967249
1775801475509720525,-0.000509182,-0.0339116,0.00967249
1775801475510755203,-0.000509182,-0.0339116,0.00967249
1775801475511755311,0.000787894,-0.0383759,0.0114361
1775801475512784867,0.000787894,-0.0383759,0.0114361
1775801475513788010,0.000787894,-0.0383759,0.0114361
1775801475514741517,0.000787894,-0.0383759,0.0114361
1775801475515742232,0.000787894,-0.0383759,0.0114361
1775801475516775392,0.000787894,-0.0383759,0.0114361
1775801475517731099,0.00186818,-0.0312102,0.0128583
1775801475518665533,0.00186818,-0.0312102,0.0128583
1775801475519747788,0.00186818,-0.0312102,0.0128583
1775801475520696215,0.00186818,-0.0312102,0.0128583
1775801475521726744,-0.0042326,-0.025373,0.0210178
1775801475522694518,-0.0042326,-0.025373,0.0210178
1775801475523747208,-0.0042326,-0.025373,0.0210178
1775801475524713683,-0.0042326,-0.025373,0.0210178
1775801475525740906,-0.0042326,-0.025373,0.0210178
1775801475526756896,-0.00453578,-0.0216923,0.0305999
1775801475527743321,-0.00453578,-0.0216923,0.0305999
1775801475528750607,-0.00453578,-0.0216923,0.0305999
1775801475529749650,-0.00453578,-0.0216923,0.0305999
1775801475530765526,-0.00453578,-0.0216923,0.0305999
1775801475531720814,-0.00453578,-0.0216923,0.0305999
1775801475532694548,-0.00620782,-0.0217802,0.0333658
1775801475533734261,-0.00620782,-0.0217802,0.0333658
1775801475534775128,-0.00620782,-0.0217802,0.0333658
1775801475535718488,-0.00620782,-0.0217802,0.0333658
1775801475536680140,-0.00620782,-0.0217802,0.0333658
1775801475537688333,-0.0134062,-0.0266768,0.025141
1775801475538673558,-0.0134062,-0.0266768,0.025141
1775801475539688215,-0.0134062,-0.0266768,0.025141
1775801475540639114,-0.0134062,-0.0266768,0.025141
1775801475541701067,-0.0134062,-0.0266768,0.025141
1775801475542679637,-0.0158138,-0.028073,0.0167211
1775801475543705843,-0.0158138,-0.028073,0.0167211
1775801475544674671,-0.0158138,-0.028073,0.0167211
1775801475545727225,-0.0158138,-0.028073,0.0167211
1775801475546753152,-0.0158138,-0.028073,0.0167211
1775801475547725545,-0.0212364,-0.028923,0.0113259
1775801475548693834,-0.0212364,-0.028923,0.0113259
1775801475549742409,-0.0212364,-0.028923,0.0113259
1775801475550783924,-0.0212364,-0.028923,0.0113259
1775801475551746277,-0.0212364,-0.028923,0.0113259
1775801475552695772,-0.0255341,-0.0321319,0.0115807
1775801475553735881,-0.0255341,-0.0321319,0.0115807
1775801475554712845,-0.0255341,-0.0321319,0.0115807
1775801475555721991,-0.0255341,-0.0321319,0.0115807
1775801475556711532,-0.0255341,-0.0321319,0.0115807
1775801475557796357,-0.0283204,-0.0315055,0.00344259
1775801475558744944,-0.0283204,-0.0315055,0.00344259
1775801475559736488,-0.0283204,-0.0315055,0.00344259
1775801475560695844,-0.0283204,-0.0315055,0.00344259
1775801475561722752,-0.0269771,-0.0299058,-0.00507964
1775801475562784947,-0.0269771,-0.0299058,-0.00507964
1775801475563741618,-0.0269771,-0.0299058,-0.00507964
1775801475564735198,-0.0269771,-0.0299058,-0.00507964
1775801475565728073,-0.0269771,-0.0299058,-0.00507964
1775801475566775659,-0.0228069,-0.0283302,-0.0117077
1775801475567754409,-0.0228069,-0.0283302,-0.0117077
1775801475568745587,-0.0228069,-0.0283302,-0.0117077
1775801475569755945,-0.0228069,-0.0283302,-0.0117077
1775801475570807414,-0.0228069,-0.0283302,-0.0117077
1775801475571701012,-0.0188263,-0.0276206,-0.019217
1775801475572730209,-0.0188263,-0.0276206,-0.019217
1775801475573731005,-0.0188263,-0.0276206,-0.019217
1775801475574741757,-0.0188263,-0.0276206,-0.019217
1775801475575732466,-0.0188263,-0.0276206,-0.019217
1775801475576746765,-0.0124574,-0.0307558,-0.0277387
1775801475577712819,-0.0124574,-0.0307558,-0.0277387
1775801475578749126,-0.0124574,-0.0307558,-0.0277387
1775801475579742340,-0.0124574,-0.0307558,-0.0277387
1775801475580739615,-0.0124574,-0.0307558,-0.0277387
1775801475581698616,-0.0124574,-0.0307558,-0.0277387
1775801475582694742,-0.00452386,-0.0326328,-0.0342819
1775801475583833716,-0.00452386,-0.0326328,-0.0342819
1775801475584639587,-0.00452386,-0.0326328,-0.0342819
1775801475585803734,-0.00452386,-0.0326328,-0.0342819
1775801475586709334,-0.00452386,-0.0326328,-0.0342819
1775801475587784407,0.00201807,-0.0355417,-0.0360482
1775801475588656846,0.00201807,-0.0355417,-0.0360482
1775801475589810144,0.00201807,-0.0355417,-0.0360482
1775801475590774954,0.00201807,-0.0355417,-0.0360482
1775801475591821262,0.00201807,-0.0355417,-0.0360482
1775801475592658538,0.0050543,-0.0374118,-0.0394993
1775801475593867805,0.0050543,-0.0374118,-0.0394993
1775801475594692550,0.0050543,-0.0374118,-0.0394993
1775801475595747708,0.0050543,-0.0374118,-0.0394993
1775801475596692196,0.00766276,-0.0329238,-0.0367856
1775801475597725530,0.00766276,-0.0329238,-0.0367856
1775801475598715185,0.00766276,-0.0329238,-0.0367856
1775801475599700856,0.00766276,-0.0329238,-0.0367856
1775801475600695035,0.00766276,-0.0329238,-0.0367856
1775801475601702607,0.00766276,-0.0329238,-0.0367856
1775801475602726466,0.00667334,-0.0288164,-0.0355156
1775801475603729038,0.00667334,-0.0288164,-0.0355156
1775801475604692353,0.00667334,-0.0288164,-0.0355156
1775801475605737829,0.00667334,-0.0288164,-0.0355156
1775801475606706638,0.00667334,-0.0288164,-0.0355156
1775801475607796738,0.0115919,-0.0326963,-0.0374789
1775801475608718474,0.0115919,-0.0326963,-0.0374789
1775801475609749750,0.0115919,-0.0326963,-0.0374789
1775801475610732045,0.0115919,-0.0326963,-0.0374789
1775801475611802479,0.0075571,-0.0359725,-0.0376894
1775801475612698324,0.0075571,-0.0359725,-0.0376894
1775801475613732794,0.0075571,-0.0359725,-0.0376894
1775801475614748808,0.0075571,-0.0359725,-0.0376894
1775801475615765054,0.0075571,-0.0359725,-0.0376894
1775801475616725782,0.00634644,-0.0447554,-0.0307419
1775801475617764372,0.00634644,-0.0447554,-0.0307419
1775801475618729435,0.00634644,-0.0447554,-0.0307419
1775801475619751776,0.00634644,-0.0447554,-0.0307419
1775801475620723916,0.00634644,-0.0447554,-0.0307419
1775801475621725219,0.00335576,-0.0518627,-0.0273506
1775801475622951494,0.00335576,-0.0518627,-0.0273506
1775801475623812216,0.00335576,-0.0518627,-0.0273506
1775801475624806964,0.00335576,-0.0518627,-0.0273506
1775801475625738317,0.00335576,-0.0518627,-0.0273506
1775801475626760315,0.00389989,-0.0526121,-0.0228348
1775801475627736508,0.00389989,-0.0526121,-0.0228348
1775801475628822833,0.00389989,-0.0526121,-0.0228348
1775801475629786589,0.00389989,-0.0526121,-0.0228348
1775801475630812715,0.00389989,-0.0526121,-0.0228348
1775801475631730740,0.00389989,-0.0526121,-0.0228348
1775801475632721092,0.0064563,-0.0459481,-0.0198
1775801475633733472,0.0064563,-0.0459481,-0.0198
1775801475634719095,0.0064563,-0.0459481,-0.0198
1775801475635700581,0.0064563,-0.0459481,-0.0198
1775801475636670154,0.00878445,-0.0334857,-0.0218227
1775801475637665302,0.00878445,-0.0334857,-0.0218227
1775801475638675659,0.00878445,-0.0334857,-0.0218227
1775801475639671847,0.00878445,-0.0334857,-0.0218227
1775801475640656300,0.00878445,-0.0334857,-0.0218227
1775801475641674054,0.00878445,-0.0334857,-0.0218227
1775801475642681957,0.00367261,-0.0203143,-0.0218423
1775801475643741713,0.00367261,-0.0203143,-0.0218423
1775801475644670764,0.00367261,-0.0203143,-0.0218423
1775801475645697187,0.00367261,-0.0203143,-0.0218423
1775801475646705441,0.00367261,-0.0203143,-0.0218423
1775801475647711743,0.00204169,-0.0221278,-0.01853
1775801475648667929,0.00204169,-0.0221278,-0.01853
1775801475649686150,0.00204169,-0.0221278,-0.01853
1775801475650723057,0.00204169,-0.0221278,-0.01853
1775801475651702149,0.00204169,-0.0221278,-0.01853
1775801475652753656,0.00262827,-0.0273447,-0.0185784
1775801475653730850,0.00262827,-0.0273447,-0.0185784
1775801475654714592,0.00262827,-0.0273447,-0.0185784
1775801475655721258,0.00262827,-0.0273447,-0.0185784
1775801475656685409,0.00262827,-0.0273447,-0.0185784
1775801475657688020,0.00383442,-0.0310331,-0.0279046
1775801475658743179,0.00383442,-0.0310331,-0.0279046
1775801475659727551,0.00383442,-0.0310331,-0.0279046
1775801475660697531,0.00383442,-0.0310331,-0.0279046
1775801475661713609,0.00383442,-0.0310331,-0.0279046
1775801475662717592,0.00454548,-0.0334689,-0.0372979
1775801475663720636,0.00454548,-0.0334689,-0.0372979
1775801475664682848,0.00454548,-0.0334689,-0.0372979
1775801475665724907,0.00454548,-0.0334689,-0.0372979
1775801475666716343,0.00454548,-0.0334689,-0.0372979
1775801475667778657,0.00531018,-0.0395862,-0.035881
1775801475668726730,0.00531018,-0.0395862,-0.035881
1775801475669725095,0.00531018,-0.0395862,-0.035881
1775801475670712531,0.00531018,-0.0395862,-0.035881
1775801475671728789,0.00531018,-0.0395862,-0.035881
1775801475672705736,0.00173847,-0.035602,-0.039027
1775801475673747015,0.00173847,-0.035602,-0.039027
1775801475674727911,0.00173847,-0.035602,-0.039027
1775801475675719982,0.00173847,-0.035602,-0.039027
1775801475676685238,0.00173847,-0.035602,-0.039027
1775801475677725140,-0.000548784,-0.028172,-0.0451957
1775801475678714438,-0.000548784,-0.028172,-0.0451957
1775801475679731174,-0.000548784,-0.028172,-0.0451957
1775801475680685537,-0.000548784,-0.028172,-0.0451957
1775801475681801787,-0.000548784,-0.028172,-0.0451957
1775801475682741027,-0.00124932,-0.0238284,-0.0452053
1775801475683716235,-0.00124932,-0.0238284,-0.0452053
1775801475685219270,-0.00124932,-0.0238284,-0.0452053
1775801475685830729,-0.00124932,-0.0238284,-0.0452053
1775801475686716793,-0.00124932,-0.0238284,-0.0452053
1775801475687699446,0.00391402,-0.0235638,-0.0414962
1775801475688672538,0.00391402,-0.0235638,-0.0414962
1775801475689678449,0.00391402,-0.0235638,-0.0414962
1775801475690665548,0.00391402,-0.0235638,-0.0414962
1775801475691658899,0.00391402,-0.0235638,-0.0414962
1775801475692647887,0.0105312,-0.0303339,-0.0480148
1775801475693672924,0.0105312,-0.0303339,-0.0480148
1775801475694676845,0.0105312,-0.0303339,-0.0480148
1775801475695689080,0.0105312,-0.0303339,-0.0480148
1775801475696671368,0.0105312,-0.0303339,-0.0480148
1775801475697771078,0.0102757,-0.0340433,-0.0510245
1775801475698740896,0.0102757,-0.0340433,-0.0510245
1775801475699676657,0.0102757,-0.0340433,-0.0510245
1775801475700677236,0.0102757,-0.0340433,-0.0510245
1775801475701697855,0.0102757,-0.0340433,-0.0510245
1775801475702712350,0.00509078,-0.036867,-0.0494467
1775801475703704375,0.00509078,-0.036867,-0.0494467
1775801475704673932,0.00509078,-0.036867,-0.0494467
1775801475705698794,0.00509078,-0.036867,-0.0494467
1775801475706722500,0.00509078,-0.036867,-0.0494467
1775801475707707751,0.00300506,-0.0414423,-0.0453703
1775801475708672230,0.00300506,-0.0414423,-0.0453703
1775801475709753577,0.00300506,-0.0414423,-0.0453703
1775801475710746433,0.00300506,-0.0414423,-0.0453703
1775801475711696794,0.00300506,-0.0414423,-0.0453703
1775801475712691331,0.00591782,-0.045772,-0.0345724
1775801475713704070,0.00591782,-0.045772,-0.0345724
1775801475714708412,0.00591782,-0.045772,-0.0345724
1775801475715706995,0.00591782,-0.045772,-0.0345724
1775801475716676969,0.00591782,-0.045772,-0.0345724
1775801475717701037,0.00542265,-0.0452988,-0.0258578
1775801475718755405,0.00542265,-0.0452988,-0.0258578
1775801475719714991,0.00542265,-0.0452988,-0.0258578
1775801475720678375,0.00542265,-0.0452988,-0.0258578
1775801475721690902,0.00542265,-0.0452988,-0.0258578
1775801475722710412,0.000346378,-0.0469972,-0.0199617
1775801475723717243,0.000346378,-0.0469972,-0.0199617
1775801475724691417,0.000346378,-0.0469972,-0.0199617
1775801475728942546,0.00508678,-0.0467802,-0.0157783
1775801475729057444,0.00508678,-0.0467802,-0.0157783
1775801475729173777,0.00508678,-0.0467802,-0.0157783
1775801475729286066,0.00508678,-0.0467802,-0.0157783
1775801475729753633,0.00508678,-0.0467802,-0.0157783
1775801475730793818,0.00508678,-0.0467802,-0.0157783
1775801475731961917,0.00618918,-0.0460039,-0.0115263
1775801475732627366,0.00618918,-0.0460039,-0.0115263
1775801475733812985,0.00618918,-0.0460039,-0.0115263
1775801475738798990,0.00569468,-0.0390839,-0.000457905
1775801475738930542,0.00569468,-0.0390839,-0.000457905
1775801475739074316,0.0056946,,-0.0390839,-0.000457905
1775801475739167795,0.00569468,-0.0390839,-0.000457905
1775801475739248838,0.00569468,-0.0390839,-0.000457905
1775801475739647124,0.00569468,-0.0390839,-0.000457905
1775801475740762387,0.00569468,-0.0390839,-0.000457905
1775801475741816041,-0.000719791,-0.0353937,-0.000539551
1775801475742863508,-0.000719791,-0.0353937,-0.000539551
1775801475743981445,-0.000719791,-0.0353937,-0.000539551
1775801475744826350,-0.000719791,-0.0353937,-0.000539551
1775801475745996862,-0.000719791,-0.0353937,-0.000539551
1775801475746878758,0.000868703,-0.0313112,-0.00218428
1775801475747959071,0.000868703,-0.0313112,-0.00218428
1775801475748825240,0.000868703,-0.0313112,-0.00218428
1775801475749878727,0.000868703,-0.0313112,-0.00218428
1775801475750891827,0.000868703,-0.0313112,-0.00218428
1775801475751838772,0.00341264,-0.0316669,-0.00106217
1775801475752787301,0.00341264,-0.0316669,-0.00106217
1775801475753867011,0.00341264,-0.0316669,-0.00106217
1775801475754854080,0.00341264,-0.0316669,-0.00106217
1775801475755792313,0.00341264,-0.0316669,-0.00106217
1775801475756825887,-0.00347853,-0.0323347,0.000765397
1775801475757830540,-0.00347853,-0.0323347,0.000765397
1775801475758890236,-0.00347853,-0.0323347,0.000765397
1775801475759828965,-0.00347853,-0.0323347,0.000765397
1775801475760839125,-0.00347853,-0.0323347,0.000765397
1775801475761699340,-0.00347853,-0.0323347,0.000765397
1775801475762741538,-0.00824497,-0.0309637,0.00115412
1775801475763700028,-0.00824497,-0.0309637,0.00115412
1775801475764681579,-0.00824497,-0.0309637,0.00115412
1775801475765866501,-0.00824497,-0.0309637,0.00115412
1775801475766885883,-0.00824497,-0.0309637,0.00115412
1775801475768152342,-0.0128767,-0.0319824,-0.00767177
1775801475768806335,-0.0128767,-0.0319824,-0.00767177
1775801475769818934,-0.0128767,-0.0319824,-0.00767177
1775801475770882059,-0.0128767,-0.0319824,-0.00767177
1775801475771819005,-0.0128767,-0.0319824,-0.00767177
1775801475772862856,-0.017138,-0.0274396,-0.0104736
1775801475773897877,-0.017138,-0.0274396,-0.0104736
1775801475774901330,-0.017138,-0.0274396,-0.0104736
1775801475775815575,-0.017138,-0.0274396,-0.0104736
1775801475776910098,-0.0221642,-0.0226546,-0.00802434
1775801475777825851,-0.0221642,-0.0226546,-0.00802434
1775801475778903518,-0.0221642,-0.0226546,-0.00802434
1775801475779829939,-0.0221642,-0.0226546,-0.00802434
1775801475780853764,-0.0221642,-0.0226546,-0.00802434
1775801475781831064,-0.0259137,-0.024358,-0.00762348
1775801475782972262,-0.0259137,-0.024358,-0.00762348
1775801475784019405,-0.0259137,-0.024358,-0.00762348
1775801475784801241,-0.0259137,-0.024358,-0.00762348
1775801475785776706,-0.0259137,-0.024358,-0.00762348
1775801475786825892,-0.0259137,-0.024358,-0.00762348
1775801475787761149,-0.0231915,-0.0213629,-0.00404869
1775801475788991137,-0.0231915,-0.0213629,-0.00404869
1775801475789710341,-0.0231915,-0.0213629,-0.00404869
1775801475790737816,-0.0231915,-0.0213629,-0.00404869
1775801475791814687,-0.0243503,-0.0221206,-0.00490392
1775801475792808343,-0.0243503,-0.0221206,-0.00490392
1775801475793792856,-0.0243503,-0.0221206,-0.00490392
1775801475794836137,-0.0243503,-0.0221206,-0.00490392
1775801475795786618,-0.0243503,-0.0221206,-0.00490392
1775801475796860963,-0.018992,-0.0197799,-0.00853314
1775801475797800628,-0.018992,-0.0197799,-0.00853314
1775801475798883708,-0.018992,-0.0197799,-0.00853314
1775801475799707982,-0.018992,-0.0197799,-0.00853314
1775801475800883131,-0.018992,-0.0197799,-0.00853314
1775801475801755761,-0.018992,-0.0197799,-0.00853314
1775801475802738874,-0.018992,-0.0197799,-0.00853314
1775801475803728796,-0.0192594,-0.0179562,-0.00417338
1775801475804877222,-0.0192594,-0.0179562,-0.00417338
1775801475805760545,-0.0192594,-0.0179562,-0.00417338
1775801475807006027,-0.021151,-0.0235437,-0.00472342
1775801475807675881,-0.021151,-0.0235437,-0.00472342
1775801475808755840,-0.021151,-0.0235437,-0.00472342
1775801475809750050,-0.021151,-0.0235437,-0.00472342
1775801475810755046,-0.021151,-0.0235437,-0.00472342
1775801475811763076,-0.021151,-0.0235437,-0.00472342
1775801475812861893,-0.0183689,-0.0228025,-0.00458175
1775801475813789341,-0.0183689,-0.0228025,-0.00458175
1775801475814867916,-0.0183689,-0.0228025,-0.00458175
1775801475815789984,-0.0183689,-0.0228025,-0.00458175
1775801475816899434,-0.0113448,-0.0177581,-0.00253701
1775801475817910661,-0.0113448,-0.0177581,-0.00253701
1775801475818878458,-0.0113448,-0.0177581,-0.00253701
1775801475819784091,-0.0113448,-0.0177581,-0.00253701
1775801475820844081,-0.0113448,-0.0177581,-0.00253701
1775801475821736906,-0.000727942,-0.0149221,-0.00182958
1775801475822810735,-0.000727942,-0.0149221,-0.00182958
1775801475823735290,-0.000727942,-0.0149221,-0.00182958
1775801475824789857,-0.000727942,-0.0149221,-0.00182958
1775801475825891415,-0.000727942,-0.0149221,-0.00182958
1775801475826821042,0.00973754,-0.0153555,0.00516558
1775801475827801696,0.00973754,-0.0153555,0.00516558
1775801475828801915,0.00973754,-0.0153555,0.00516558
1775801475829839652,0.00973754,-0.0153555,0.00516558
1775801475830805486,0.00973754,-0.0153555,0.00516558
1775801475831997077,0.0130353,-0.0169311,0.0065613
1775801475833021068,0.0130353,-0.0169311,0.0065613
1775801475833873795,0.0130353,-0.0169311,0.0065613
1775801475834804913,0.0130353,-0.0169311,0.0065613
1775801475835743259,0.0130353,-0.0169311,0.0065613
1775801475836739420,0.0130353,-0.0169311,0.0065613
1775801475837857035,0.0130353,-0.0169311,0.0065613
1775801475838808546,0.0194341,-0.0201192,0.00543646
1775801475839775763,0.0194341,-0.0201192,0.00543646
1775801475840786808,0.0194341,-0.0201192,0.00543646
1775801475841799516,0.0194341,-0.0201192,0.00543646
1775801475842853894,0.0159935,-0.013966,0.00249376
1775801475843818292,0.0159935,-0.013966,0.00249376
1775801475844916567,0.0159935,-0.013966,0.00249376
1775801475845746737,0.0159935,-0.013966,0.00249376
1775801475846905916,0.0129951,-0.00910952,0.00634562
1775801475847719909,0.0129951,-0.00910952,0.00634562
1775801475848725251,0.0129951,-0.00910952,0.00634562
1775801475849856506,0.0129951,-0.00910952,0.00634562
1775801475850909441,0.0129951,-0.00910952,0.00634562
1775801475851947505,0.0132335,-0.00922991,0.00394734
1775801475852854878,0.0132335,-0.00922991,0.00394734
1775801475853829815,0.0132335,-0.00922991,0.00394734
1775801475855001705,0.0132335,-0.00922991,0.00394734
1775801475855868612,0.0132335,-0.00922991,0.00394734
1775801475856841362,0.00730764,-0.00566335,0.000144915
1775801475857997647,0.00730764,-0.00566335,0.000144915
1775801475858990347,0.00730764,-0.00566335,0.000144915
1775801475859847836,0.00730764,-0.00566335,0.000144915
1775801475860808833,0.00730764,-0.00566335,0.000144915
1775801475861872298,0.00544407,-0.00360927,-0.00537661
1775801475862860798,0.00544407,-0.00360927,-0.00537661
1775801475863878015,0.00544407,-0.00360927,-0.00537661
1775801475864882564,0.00544407,-0.00360927,-0.00537661
1775801475865879285,0.00544407,-0.00360927,-0.00537661
1775801475866947282,-0.000383239,-0.00521171,-0.00980051
1775801475867884781,-0.000383239,-0.00521171,-0.00980051
1775801475868824625,-0.000383239,-0.00521171,-0.00980051
1775801475869995955,-0.000383239,-0.00521171,-0.00980051
1775801475870942314,-0.000383239,-0.00521171,-0.00980051
1775801475871993954,-0.000340968,-0.00428278,-0.00928444
1775801475872830202,-0.000340968,-0.00428278,-0.00928444
1775801475873991394,-0.000340968,-0.00428278,-0.00928444
1775801475874978124,-0.000340968,-0.00428278,-0.00928444
1775801475875956490,-0.000340968,-0.00428278,-0.00928444
1775801475876913967,-0.000340968,-0.00428278,-0.00928444
1775801475877973261,0.00926443,-0.00200706,-0.00885264
1775801475879035977,0.00926443,-0.00200706,-0.00885264
1775801475880106774,0.00926443,-0.00200706,-0.00885264
1775801475880891441,0.00926443,-0.00200706,-0.00885264
1775801475882021701,0.0162197,0.00320422,-0.00910975
1775801475883134566,0.0162197,0.00320422,-0.00910975
1775801475883914393,0.0162197,0.00320422,-0.00910975
1775801475884838998,0.0162197,0.00320422,-0.00910975
1775801475885828251,0.0162197,0.00320422,-0.00910975
1775801475886936066,0.0181215,0.00656991,-0.0109107
1775801475887927360,0.0181215,0.00656991,-0.0109107
1775801475889110813,0.0181215,0.00656991,-0.0109107
1775801475889943708,0.0181215,0.00656991,-0.0109107
1775801475890969258,0.0181215,0.00656991,-0.0109107
1775801475891903923,0.0176755,0.00518344,-0.0133831
1775801475892819073,0.0176755,0.00518344,-0.0133831
1775801475893783186,0.0176755,0.00518344,-0.0133831
1775801475894882110,0.0176755,0.00518344,-0.0133831
1775801475895930946,0.0176755,0.00518344,-0.0133831
1775801475896773127,0.0191868,0.00108916,-0.0159036
1775801475897933944,0.0191868,0.00108916,-0.0159036
1775801475898919538,0.0191868,0.00108916,-0.0159036
1775801475899923566,0.0191868,0.00108916,-0.0159036
1775801475900803595,0.0191868,0.00108916,-0.0159036
1775801475901986427,0.0191868,0.00108916,-0.0159036
1775801475903015900,0.0178691,-0.00478496,-0.0136743
1775801475903938444,0.0178691,-0.00478496,-0.0136743
1775801475904852780,0.0178691,-0.00478496,-0.0136743
1775801475906150107,0.0178691,-0.00478496,-0.0136743
1775801475906880051,0.0188627,-0.00534434,-0.0102676
1775801475908026439,0.0188627,-0.00534434,-0.0102676
1775801475908795951,0.0188627,-0.00534434,-0.0102676
1775801475909983058,0.0188627,-0.00534434,-0.0102676
1775801475910908199,0.0188627,-0.00534434,-0.0102676
1775801475911969626,0.0188627,-0.00534434,-0.0102676
1775801475912782251,0.0188627,-0.00534434,-0.0102676
1775801475914065665,0.0174347,-0.00466424,-0.00590078
1775801475914916409,0.0174347,-0.00466424,-0.00590078
1775801475915981460,0.0174347,-0.00466424,-0.00590078
1775801475916824099,0.0131162,-0.011955,-0.00607169
1775801475918000892,0.0131162,-0.011955,-0.00607169
1775801475918937235,0.0131162,-0.011955,-0.00607169
1775801475919839452,0.0131162,-0.011955,-0.00607169
1775801475920867095,0.0131162,-0.011955,-0.00607169
1775801475921961074,0.0078499,-0.0201969,-0.00397593
1775801475923039981,0.0078499,-0.0201969,-0.00397593
1775801475923979939,0.0078499,-0.0201969,-0.00397593
1775801475924856148,0.0078499,-0.0201969,-0.00397593
1775801475926060907,0.0078499,-0.0201969,-0.00397593
1775801475926892033,0.0078499,-0.0201969,-0.00397593
1775801475927921027,0.00718487,-0.0207211,0.00180717
1775801475928805064,0.00718487,-0.0207211,0.00180717
1775801475930050935,0.00718487,-0.0207211,0.00180717
1775801475930913167,0.00718487,-0.0207211,0.00180717
1775801475932039517,0.00772647,-0.0283695,0.00894712
1775801475933009923,0.00772647,-0.0283695,0.00894712
1775801475933914524,0.00772647,-0.0283695,0.00894712
1775801475934896377,0.00772647,-0.0283695,0.00894712
1775801475935862527,0.00772647,-0.0283695,0.00894712
1775801475936948360,0.00976498,-0.0300496,0.0101861
1775801475937762411,0.00976498,-0.0300496,0.0101861
1775801475938948876,0.00976498,-0.0300496,0.0101861
1775801475939730748,0.00976498,-0.0300496,0.0101861
1775801475940908092,0.00976498,-0.0300496,0.0101861
1775801475941846922,0.00976498,-0.0300496,0.0101861
1775801475942959548,0.0099252,-0.0315727,0.013566
1775801475943726496,0.0099252,-0.0315727,0.013566
1775801475944889828,0.0099252,-0.0315727,0.013566
1775801475945757080,0.0099252,-0.0315727,0.013566
1775801475946948367,0.0135632,-0.0237209,0.0104942
1775801475947772749,0.0135632,-0.0237209,0.0104942
1775801475948945024,0.0135632,-0.0237209,0.0104942
1775801475949838523,0.0135632,-0.0237209,0.0104942
1775801475950951510,0.0135632,-0.0237209,0.0104942
1775801475951977088,0.0135632,-0.0237209,0.0104942
1775801475952848419,0.0144421,-0.0218859,0.0107275
1775801475953979223,0.0144421,-0.0218859,0.0107275
1775801475954897520,0.0144421,-0.0218859,0.0107275
1775801475955889492,0.0144421,-0.0218859,0.0107275
1775801475956859656,0.0136378,-0.0237786,0.0168013
1775801475957954308,0.0136378,-0.0237786,0.0168013
1775801475958927413,0.0136378,-0.0237786,0.0168013
1775801475959998101,0.0136378,-0.0237786,0.0168013
1775801475960918906,0.0136378,-0.0237786,0.0168013
1775801475961901284,0.0136378,-0.0237786,0.0168013
1775801475962950325,0.00781881,-0.0222052,0.0132444
1775801475963968813,0.00781881,-0.0222052,0.0132444
1775801475964846689,0.00781881,-0.0222052,0.0132444
1775801475965924970,0.00781881,-0.0222052,0.0132444
1775801475967141667,0.00781881,-0.0222052,0.0132444
1775801475967906505,0.00341208,-0.018487,0.0202777
1775801475968897591,0.00341208,-0.018487,0.0202777
1775801475969940998,0.00341208,-0.018487,0.0202777
1775801475971074810,0.00341208,-0.018487,0.0202777
1775801475971888410,0.00341208,-0.018487,0.0202777
1775801475972982511,-0.00326185,-0.0159716,0.0262094
1775801475973924063,-0.00326185,-0.0159716,0.0262094
1775801475975022248,-0.00326185,-0.0159716,0.0262094
1775801475975880569,-0.00326185,-0.0159716,0.0262094
1775801475976831952,-0.00326185,-0.0159716,0.0262094
1775801475977916320,-0.00733021,-0.0137178,0.0301212
1775801475978951084,-0.00733021,-0.0137178,0.0301212
1775801475979862263,-0.00733021,-0.0137178,0.0301212
1775801475980835109,-0.00733021,-0.0137178,0.0301212
1775801475982077006,-0.00670369,-0.0188888,0.0295205
1775801475983012784,-0.00670369,-0.0188888,0.0295205
1775801475983925744,-0.00670369,-0.0188888,0.0295205
1775801475984732813,-0.00670369,-0.0188888,0.0295205
1775801475985768430,-0.00670369,-0.0188888,0.0295205
1775801475986730274,-0.00670369,-0.0188888,0.0295205
1775801475987696306,0.00103104,-0.0265546,0.0327582
1775801475988686363,0.00103104,-0.0265546,0.0327582
1775801475989717539,0.00103104,-0.0265546,0.0327582
1775801475990725868,0.00103104,-0.0265546,0.0327582
1775801475991714341,0.00103104,-0.0265546,0.0327582
1775801475992684915,0.0114178,-0.0294578,0.0355681
1775801475993693729,0.0114178,-0.0294578,0.0355681
1775801475994707452,0.0114178,-0.0294578,0.0355681
1775801475995730905,0.0114178,-0.0294578,0.0355681
1775801475996677023,0.0114178,-0.0294578,0.0355681
1775801475997732446,0.0114178,-0.0294578,0.0355681
1775801475998747520,0.0162658,-0.0297757,0.0363706
1775801475999713092,0.0162658,-0.0297757,0.0363706
1775801476000714192,0.0162658,-0.0297757,0.0363706
1775801476002194467,0.0175439,-0.0223039,0.0381419
1775801476002747809,0.0175439,-0.0223039,0.0381419
1775801476003721898,0.0175439,-0.0223039,0.0381419
1775801476004697431,0.0175439,-0.0223039,0.0381419
1775801476005707848,0.0175439,-0.0223039,0.0381419
1775801476006749457,0.0175439,-0.0223039,0.0381419
1775801476007712858,0.0162039,-0.0228536,0.0385953
1775801476008693773,0.0162039,-0.0228536,0.0385953
1775801476009716512,0.0162039,-0.0228536,0.0385953
1775801476010741728,0.0162039,-0.0228536,0.0385953
1775801476011710409,0.0162039,-0.0228536,0.0385953
1775801476012819712,0.0203095,-0.0281602,0.0344926
1775801476013878900,0.0203095,-0.0281602,0.0344926
1775801476015014827,0.0203095,-0.0281602,0.0344926
1775801476015721915,0.0203095,-0.0281602,0.0344926
1775801476016896397,0.0155742,-0.0323209,0.0275393
1775801476017902683,0.0155742,-0.0323209,0.0275393
1775801476018948772,0.0155742,-0.0323209,0.0275393
1775801476019979003,0.0155742,-0.0323209,0.0275393
1775801476020947171,0.0155742,-0.0323209,0.0275393
1775801476021927418,0.012051,-0.0279114,0.022825
1775801476022884210,0.012051,-0.0279114,0.022825
1775801476023745388,0.012051,-0.0279114,0.022825
1775801476024864437,0.012051,-0.0279114,0.022825
1775801476025788834,0.012051,-0.0279114,0.022825
1775801476026891509,0.00921015,-0.0258197,0.016875
1775801476027932234,0.00921015,-0.0258197,0.016875
1775801476028679044,0.00921015,-0.0258197,0.016875
1775801476029905519,0.00921015,-0.0258197,0.016875
1775801476030924837,0.00921015,-0.0258197,0.016875
1775801476031785029,0.00921015,-0.0258197,0.016875
1775801476032803402,0.00293379,-0.030687,0.00868005
1775801476033848499,0.00293379,-0.030687,0.00868005
1775801476034808817,0.00293379,-0.030687,0.00868005
1775801476035708181,0.00293379,-0.030687,0.00868005
1775801476036738532,-0.00146299,-0.0387012,0.00400075
1775801476037824980,-0.00146299,-0.0387012,0.00400075
1775801476038948763,-0.00146299,-0.0387012,0.00400075
1775801476039812811,-0.00146299,-0.0387012,0.00400075
1775801476040813442,-0.00146299,-0.0387012,0.00400075
1775801476041886034,-0.00146299,-0.0387012,0.00400075
1775801476042889245,-0.00258324,-0.0364002,0.00130217
1775801476043859343,-0.00258324,-0.0364002,0.00130217
1775801476044939655,-0.00258324,-0.0364002,0.00130217
1775801476045779378,-0.00258324,-0.0364002,0.00130217
1775801476046939386,-0.00258324,-0.0364002,0.00130217
1775801476047715327,-0.00258324,-0.0364002,0.00130217
1775801476048900782,-0.00643524,-0.0259098,0.000419298
1775801476049909741,-0.00643524,-0.0259098,0.000419298
1775801476050881948,-0.00643524,-0.0259098,0.000419298
1775801476051786343,-0.00643524,-0.0259098,0.000419298
1775801476052881902,-0.00621014,-0.0185935,-0.00588537
1775801476053791846,-0.00621014,-0.0185935,-0.00588537
1775801476054835349,-0.00621014,-0.0185935,-0.00588537
1775801476055749637,-0.00621014,-0.0185935,-0.00588537
1775801476056765007,-0.0129006,-0.0174945,-0.00685529
1775801476057745922,-0.0129006,-0.0174945,-0.00685529
1775801476058721098,-0.0129006,-0.0174945,-0.00685529
1775801476059741379,-0.0129006,-0.0174945,-0.00685529
1775801476060724664,-0.0129006,-0.0174945,-0.00685529
1775801476061826411,-0.0129006,-0.0174945,-0.00685529
1775801476062707820,-0.0187432,-0.0189622,-0.00827457
1775801476063712023,-0.0187432,-0.0189622,-0.00827457
1775801476064675774,-0.0187432,-0.0189622,-0.00827457
1775801476065722038,-0.0187432,-0.0189622,-0.00827457
1775801476066677153,-0.0187432,-0.0189622,-0.00827457
1775801476067786704,-0.0212335,-0.0173827,-0.00356756
1775801476068802766,-0.0212335,-0.0173827,-0.00356756
1775801476069791574,-0.0212335,-0.0173827,-0.00356756
1775801476070913393,-0.0212335,-0.0173827,-0.00356756
1775801476071822215,-0.0212335,-0.0173827,-0.00356756
1775801476072917001,-0.0164125,-0.0148129,-0.00366318
1775801476073790971,-0.0164125,-0.0148129,-0.00366318
1775801476074859780,-0.0164125,-0.0148129,-0.00366318
1775801476075759040,-0.0164125,-0.0148129,-0.00366318
1775801476076740308,-0.0164125,-0.0148129,-0.00366318
1775801476077708482,-0.0164125,-0.0148129,-0.00366318
1775801476078857470,-0.0188891,-0.0204315,-0.0067994
1775801476079734743,-0.0188891,-0.0204315,-0.0067994
1775801476080802634,-0.0188891,-0.0204315,-0.0067994
1775801476081744402,-0.0188891,-0.0204315,-0.0067994
1775801476082763906,-0.0189622,-0.0251211,-0.002129
1775801476083764174,-0.0189622,-0.0251211,-0.002129
1775801476085153281,-0.0189622,-0.0251211,-0.002129
1775801476085722117,-0.0189622,-0.0251211,-0.002129
1775801476086867764,-0.0230141,-0.0297606,0.00105798
1775801476087739242,-0.0230141,-0.0297606,0.00105798
1775801476088751838,-0.0230141,-0.0297606,0.00105798
1775801476089794111,-0.0230141,-0.0297606,0.00105798
1775801476090895090,-0.0230141,-0.0297606,0.00105798
1775801476091729494,-0.0230141,-0.0297606,0.00105798
1775801476092851593,-0.0167367,-0.0290762,0.000859452
1775801476093767235,-0.0167367,-0.0290762,0.000859452
1775801476094835492,-0.0167367,-0.0290762,0.000859452
1775801476095736615,-0.0167367,-0.0290762,0.000859452
1775801476096825941,-0.013269,-0.0223978,0.00240023
1775801476097765705,-0.013269,-0.0223978,0.00240023
1775801476098870564,-0.013269,-0.0223978,0.00240023
1775801476099875476,-0.013269,-0.0223978,0.00240023
1775801476100955309,-0.013269,-0.0223978,0.00240023
1775801476101815536,-0.013269,-0.0223978,0.00240023
1775801476102923174,-0.00747929,-0.0193747,0.00362137
1775801476103748364,-0.00747929,-0.0193747,0.00362137
1775801476104851046,-0.00747929,-0.0193747,0.00362137
1775801476105737333,-0.00747929,-0.0193747,0.00362137
1775801476106890720,-0.00419968,-0.0216157,0.00123915
1775801476107898201,-0.00419968,-0.0216157,0.00123915
1775801476108900720,-0.00419968,-0.0216157,0.00123915
1775801476109755771,-0.00419968,-0.0216157,0.00123915
1775801476110940713,-0.00419968,-0.0216157,0.00123915
1775801476111750703,-0.00419968,-0.0216157,0.00123915
1775801476112889440,0.00106907,-0.0194769,0.00292428
1775801476113787847,0.00106907,-0.0194769,0.00292428
1775801476114889674,0.00106907,-0.0194769,0.00292428
1775801476115762769,0.00106907,-0.0194769,0.00292428
1775801476116779207,0.00106907,-0.0194769,0.00292428
1775801476118012466,0.00469689,-0.0182632,-0.0021212
1775801476118884414,0.00469689,-0.0182632,-0.0021212
1775801476119658763,0.00469689,-0.0182632,-0.0021212
1775801476120787768,0.00469689,-0.0182632,-0.0021212
1775801476121729869,0.00804181,-0.0220219,-0.00547519
1775801476122733095,0.00804181,-0.0220219,-0.00547519
1775801476123749128,0.00804181,-0.0220219,-0.00547519
1775801476124747383,0.00804181,-0.0220219,-0.00547519
1775801476125758968,0.00804181,-0.0220219,-0.00547519
1775801476126764362,0.00632767,-0.0270768,-0.00805723
1775801476127807599,0.00632767,-0.0270768,-0.00805723
1775801476128823271,0.00632767,-0.0270768,-0.00805723
1775801476129774671,0.00632767,-0.0270768,-0.00805723
1775801476130719358,0.00632767,-0.0270768,-0.00805723
1775801476131682639,0.00632767,-0.0270768,-0.00805723
1775801476132716812,0.0038465,-0.0269736,-0.0153714
1775801476133726784,0.0038465,-0.0269736,-0.0153714
1775801476134793670,0.0038465,-0.0269736,-0.0153714
1775801476135811232,0.0038465,-0.0269736,-0.0153714
1775801476136798077,0.00721325,-0.0255981,-0.021769
1775801476137749108,0.00721325,-0.0255981,-0.021769
1775801476138731464,0.00721325,-0.0255981,-0.021769
1775801476139745192,0.00721325,-0.0255981,-0.021769
1775801476140696353,0.00721325,-0.0255981,-0.021769
1775801476141745691,0.00979018,-0.0272949,-0.0207406
1775801476142717005,0.00979018,-0.0272949,-0.0207406
1775801476143731141,0.00979018,-0.0272949,-0.0207406
1775801476144730027,0.00979018,-0.0272949,-0.0207406
1775801476145745804,0.00979018,-0.0272949,-0.0207406
1775801476146737953,0.0131815,-0.0259138,-0.022928
1775801476147720286,0.0131815,-0.0259138,-0.022928
1775801476148713555,0.0131815,-0.0259138,-0.022928
1775801476149757621,0.0131815,-0.0259138,-0.022928
1775801476150719017,0.0131815,-0.0259138,-0.022928
1775801476151769557,0.0105759,-0.0168412,-0.0249153
1775801476152784015,0.0105759,-0.0168412,-0.0249153
1775801476153750652,0.0105759,-0.0168412,-0.0249153
1775801476154944780,0.0105759,-0.0168412,-0.0249153
1775801476155844888,0.0105759,-0.0168412,-0.0249153
1775801476156820759,0.00717034,-0.0075897,-0.022501
1775801476157755625,0.00717034,-0.0075897,-0.022501
1775801476158726561,0.00717034,-0.0075897,-0.022501
1775801476159806863,0.00717034,-0.0075897,-0.022501
1775801476160750129,0.00717034,-0.0075897,-0.022501
1775801476161713556,0.00868088,-0.00968377,-0.0183119
1775801476162724408,0.00868088,-0.00968377,-0.0183119
1775801476163716528,0.00868088,-0.00968377,-0.0183119
1775801476164706837,0.00868088,-0.00968377,-0.0183119
1775801476165723487,0.00868088,-0.00968377,-0.0183119
1775801476166706938,0.00868088,-0.00968377,-0.0183119
1775801476167724337,0.0126858,-0.0271024,-0.0145425
1775801476168918755,0.0126858,-0.0271024,-0.0145425
1775801476169759369,0.0126858,-0.0271024,-0.0145425
1775801476170800659,0.0126858,-0.0271024,-0.0145425
1775801476171722903,0.0126858,-0.0271024,-0.0145425
1775801476172710553,0.0112146,-0.0399953,-0.0158052
1775801476173725019,0.0112146,-0.0399953,-0.0158052
1775801476174761395,0.0112146,-0.0399953,-0.0158052
1775801476175776603,0.0112146,-0.0399953,-0.0158052
1775801476176736811,0.0112146,-0.0399953,-0.0158052
1775801476177705414,0.0128946,-0.0431642,-0.021558
1775801476178748810,0.0128946,-0.0431642,-0.021558
1775801476179714445,0.0128946,-0.0431642,-0.021558
1775801476180707570,0.0128946,-0.0431642,-0.021558
1775801476181712704,0.0128946,-0.0431642,-0.021558
1775801476182748804,0.0154294,-0.0274507,-0.0218435
1775801476183685204,0.0154294,-0.0274507,-0.0218435
1775801476184939393,0.0154294,-0.0274507,-0.0218435
1775801476185812453,0.0154294,-0.0274507,-0.0218435
1775801476186939065,0.0184988,-0.0179122,-0.0205926
1775801476187818671,0.0184988,-0.0179122,-0.0205926
1775801476188829558,0.0184988,-0.0179122,-0.0205926
1775801476189810711,0.0184988,-0.0179122,-0.0205926
1775801476190981229,0.0184988,-0.0179122,-0.0205926
1775801476191801754,0.0195954,-0.0187249,-0.0176318
1775801476192731194,0.0195954,-0.0187249,-0.0176318
1775801476193712418,0.0195954,-0.0187249,-0.0176318
1775801476194704631,0.0195954,-0.0187249,-0.0176318
1775801476195730334,0.0195954,-0.0187249,-0.0176318
1775801476196704289,0.0157147,-0.0228153,-0.0182362
1775801476197769531,0.0157147,-0.0228153,-0.0182362
1775801476198731994,0.0157147,-0.0228153,-0.0182362
1775801476199790669,0.0157147,-0.0228153,-0.0182362
1775801476200784224,0.0157147,-0.0228153,-0.0182362
1775801476201816432,0.0109388,-0.0301168,-0.0244637
1775801476202717271,0.0109388,-0.0301168,-0.0244637
1775801476203772442,0.0109388,-0.0301168,-0.0244637
1775801476204705474,0.0109388,-0.0301168,-0.0244637
1775801476205744428,0.0109388,-0.0301168,-0.0244637
1775801476206717824,0.0089756,-0.0413024,-0.0240724
1775801476207752236,0.0089756,-0.0413024,-0.0240724
1775801476208711966,0.0089756,-0.0413024,-0.0240724
1775801476209733416,0.0089756,-0.0413024,-0.0240724
1775801476210736097,0.0089756,-0.0413024,-0.0240724
1775801476211740227,0.00313555,-0.0460958,-0.0178035
1775801476212705466,0.00313555,-0.0460958,-0.0178035
1775801476213733536,0.00313555,-0.0460958,-0.0178035
1775801476214717438,0.00313555,-0.0460958,-0.0178035
1775801476215754346,0.00313555,-0.0460958,-0.0178035
1775801476216712575,-0.00394793,-0.0439488,-0.0170784
1775801476217739720,-0.00394793,-0.0439488,-0.0170784
1775801476218803769,-0.00394793,-0.0439488,-0.0170784
1775801476219731230,-0.00394793,-0.0439488,-0.0170784
1775801476220724157,-0.00394793,-0.0439488,-0.0170784
1775801476221742776,-0.00394793,-0.0439488,-0.0170784
1775801476222809429,-0.00253478,-0.0468827,-0.0130336
1775801476223825511,-0.00253478,-0.0468827,-0.0130336
1775801476224706191,-0.00253478,-0.0468827,-0.0130336
1775801476225716523,-0.00253478,-0.0468827,-0.0130336
1775801476226750085,-0.00132135,-0.0506332,-0.0137058
1775801476227747923,-0.00132135,-0.0506332,-0.0137058
1775801476228743721,-0.00132135,-0.0506332,-0.0137058
1775801476229742736,-0.00132135,-0.0506332,-0.0137058
1775801476230760846,-0.00132135,-0.0506332,-0.0137058
1775801476231747825,-0.00223894,-0.0560918,-0.00459968
1775801476232713262,-0.00223894,-0.0560918,-0.00459968
1775801476233757793,-0.00223894,-0.0560918,-0.00459968
1775801476234752565,-0.00223894,-0.0560918,-0.00459968
1775801476235812330,-0.00223894,-0.0560918,-0.00459968
1775801476236709774,-0.00403271,-0.0504098,-0.000271957
1775801476237777320,-0.00403271,-0.0504098,-0.000271957
1775801476238724912,-0.00403271,-0.0504098,-0.000271957
1775801476239706266,-0.00403271,-0.0504098,-0.000271957
1775801476240686910,-0.00403271,-0.0504098,-0.000271957
1775801476241723759,-0.00403271,-0.0504098,-0.000271957
1775801476242701761,-0.0128141,-0.0408129,0.00108137
1775801476243711474,-0.0128141,-0.0408129,0.00108137
1775801476244736692,-0.0128141,-0.0408129,0.00108137
1775801476245780523,-0.0128141,-0.0408129,0.00108137
1775801476246713397,-0.0145498,-0.031859,-0.00237508
1775801476247727633,-0.0145498,-0.031859,-0.00237508
1775801476248688840,-0.0145498,-0.031859,-0.00237508
1775801476249729111,-0.0145498,-0.031859,-0.00237508
1775801476250727682,-0.0145498,-0.031859,-0.00237508
1775801476251728848,-0.0149475,-0.0346026,0.000663749
1775801476252743837,-0.0149475,-0.0346026,0.000663749
1775801476253732112,-0.0149475,-0.0346026,0.000663749
1775801476254772377,-0.0149475,-0.0346026,0.000663749
1775801476255740564,-0.0149475,-0.0346026,0.000663749
1775801476256724873,-0.0110311,-0.0474541,0.00687195
1775801476257745320,-0.0110311,-0.0474541,0.00687195
1775801476258743440,-0.0110311,-0.0474541,0.00687195
1775801476259745010,-0.0110311,-0.0474541,0.00687195
1775801476260693836,-0.0110311,-0.0474541,0.00687195
1775801476261732917,-0.0110311,-0.0474541,0.00687195
1775801476262715374,-0.00577142,-0.05635,0.00620253
1775801476263732027,-0.00577142,-0.05635,0.00620253
1775801476264696272,-0.00577142,-0.05635,0.00620253
1775801476265808455,-0.00577142,-0.05635,0.00620253
1775801476266786918,-0.00654483,-0.0551532,0.00310606
1775801476267752946,-0.00654483,-0.0551532,0.00310606
1775801476268696220,-0.00654483,-0.0551532,0.00310606
1775801476269763507,-0.00654483,-0.0551532,0.00310606
1775801476270721700,-0.00654483,-0.0551532,0.00310606
1775801476271729274,-0.00654483,-0.0551532,0.00310606
1775801476272751524,-0.00686775,-0.0476239,0.000256581
1775801476273714829,-0.00686775,-0.0476239,0.000256581
1775801476274702266,-0.00686775,-0.0476239,0.000256581
1775801476275720547,-0.00686775,-0.0476239,0.000256581
1775801476276739334,-0.00508219,-0.0367207,0.00344914
1775801476277732518,-0.00508219,-0.0367207,0.00344914
1775801476278717253,-0.00508219,-0.0367207,0.00344914
1775801476279692455,-0.00508219,-0.0367207,0.00344914
1775801476280640296,-0.00508219,-0.0367207,0.00344914
1775801476281685809,-0.00508219,-0.0367207,0.00344914
1775801476282698690,-0.00467958,-0.0325349,0.00722659
1775801476283721112,-0.00467958,-0.0325349,0.00722659
1775801476284708306,-0.00467958,-0.0325349,0.00722659
1775801476285695888,-0.00467958,-0.0325349,0.00722659
1775801476286683748,-0.00646274,-0.0334284,0.0049248
1775801476287716557,-0.00646274,-0.0334284,0.0049248
1775801476288657658,-0.00646274,-0.0334284,0.0049248
1775801476289771629,-0.00646274,-0.0334284,0.0049248
1775801476290691115,-0.00646274,-0.0334284,0.0049248
1775801476291718616,-0.00646274,-0.0334284,0.0049248
1775801476292673497,-0.00366392,-0.0345942,0.00226221
1775801476293708409,-0.00366392,-0.0345942,0.00226221
1775801476294705334,-0.00366392,-0.0345942,0.00226221
1775801476295709226,-0.00366392,-0.0345942,0.00226221
1775801476296729298,-0.00329977,-0.0345463,0.00379653
1775801476297762429,-0.00329977,-0.0345463,0.00379653
1775801476298759832,-0.00329977,-0.0345463,0.00379653
1775801476299773117,-0.00329977,-0.0345463,0.00379653
1775801476300758785,-0.00329977,-0.0345463,0.00379653
1775801476301775243,-0.00499976,-0.036848,0.00996977
1775801476302725123,-0.00499976,-0.036848,0.00996977
1775801476303723414,-0.00499976,-0.036848,0.00996977
1775801476304727057,-0.00499976,-0.036848,0.00996977
1775801476305730262,-0.00499976,-0.036848,0.00996977
1775801476306712454,-0.0062503,-0.0396793,0.0128628
1775801476307717641,-0.0062503,-0.0396793,0.0128628
1775801476308704403,-0.0062503,-0.0396793,0.0128628
1775801476309718238,-0.0062503,-0.0396793,0.0128628
1775801476310765045,-0.0062503,-0.0396793,0.0128628
1775801476311741455,-0.0100974,-0.0340644,0.0145465
1775801476312689763,-0.0100974,-0.0340644,0.0145465
1775801476313736987,-0.0100974,-0.0340644,0.0145465
1775801476314719380,-0.0100974,-0.0340644,0.0145465
1775801476315725233,-0.0100974,-0.0340644,0.0145465
1775801476316711034,-0.0137614,-0.0263958,0.0214817
1775801476317764550,-0.0137614,-0.0263958,0.0214817
1775801476318728642,-0.0137614,-0.0263958,0.0214817
1775801476319792776,-0.0137614,-0.0263958,0.0214817
1775801476320723329,-0.0137614,-0.0263958,0.0214817
1775801476321982605,-0.0158169,-0.0290709,0.0201897
1775801476322837171,-0.0158169,-0.0290709,0.0201897
1775801476323946094,-0.0158169,-0.0290709,0.0201897
1775801476324707114,-0.0158169,-0.0290709,0.0201897
1775801476325954594,-0.0158169,-0.0290709,0.0201897
1775801476326817509,-0.0158169,-0.0290709,0.0201897
1775801476327952602,-0.0162328,-0.0360242,0.017418
1775801476328717281,-0.0162328,-0.0360242,0.017418
1775801476329937379,-0.0162328,-0.0360242,0.017418
1775801476330830017,-0.0162328,-0.0360242,0.017418
1775801476332037086,-0.014932,-0.0421546,0.0130024
1775801476332728130,-0.014932,-0.0421546,0.0130024
1775801476333960662,-0.014932,-0.0421546,0.0130024
1775801476335183917,-0.014932,-0.0421546,0.0130024
1775801476335942055,-0.014932,-0.0421546,0.0130024
1775801476336900496,-0.0133084,-0.041127,0.00782291
1775801476337822372,-0.0133084,-0.041127,0.00782291
1775801476338843657,-0.0133084,-0.041127,0.00782291
1775801476339947823,-0.0133084,-0.041127,0.00782291
1775801476340739275,-0.0133084,-0.041127,0.00782291
1775801476342023573,-0.0116396,-0.0331625,0.00820375
1775801476342743005,-0.0116396,-0.0331625,0.00820375
1775801476343783802,-0.0116396,-0.0331625,0.00820375
1775801476344727601,-0.0116396,-0.0331625,0.00820375
1775801476345721157,-0.0116396,-0.0331625,0.00820375
1775801476346736279,-0.00641866,-0.0269481,0.00707181
1775801476347748137,-0.00641866,-0.0269481,0.00707181
1775801476348723158,-0.00641866,-0.0269481,0.00707181
1775801476349697602,-0.00641866,-0.0269481,0.00707181
1775801476350911263,-0.00641866,-0.0269481,0.00707181
1775801476351766623,-0.00641866,-0.0269481,0.00707181
1775801476352934790,-0.00117147,-0.0329255,0.00881023
1775801476353858893,-0.00117147,-0.0329255,0.00881023
1775801476354923001,-0.00117147,-0.0329255,0.00881023
1775801476355837013,-0.00117147,-0.0329255,0.00881023
1775801476356899284,-0.00117147,-0.0329255,0.00881023
1775801476357751843,0.00689941,-0.0364959,0.00985011
1775801476358865303,0.00689941,-0.0364959,0.00985011
1775801476359792858,0.00689941,-0.0364959,0.00985011
1775801476360749260,0.00689941,-0.0364959,0.00985011
1775801476361788604,0.00689941,-0.0364959,0.00985011
1775801476362856176,0.00668716,-0.0315966,0.00412865
1775801476363775630,0.00668716,-0.0315966,0.00412865
1775801476364674895,0.00668716,-0.0315966,0.00412865
1775801476365696877,0.00668716,-0.0315966,0.00412865
1775801476366765808,0.00668716,-0.0315966,0.00412865
1775801476367768548,0.00466884,-0.0285808,-0.000737908
1775801476368682503,0.00466884,-0.0285808,-0.000737908
1775801476369868232,0.00466884,-0.0285808,-0.000737908
1775801476370849075,0.00466884,-0.0285808,-0.000737908
1775801476371931635,0.00466884,-0.0285808,-0.000737908
1775801476372742382,0.000319797,-0.0255299,-0.00171847
1775801476373896479,0.000319797,-0.0255299,-0.00171847
1775801476374785559,0.000319797,-0.0255299,-0.00171847
1775801476375856896,0.000319797,-0.0255299,-0.00171847
1775801476376649241,0.000319797,-0.0255299,-0.00171847
1775801476377819711,-0.00342619,-0.022119,-0.00442635
1775801476378754200,-0.00342619,-0.022119,-0.00442635
1775801476379947869,-0.00342619,-0.022119,-0.00442635
1775801476380685536,-0.00342619,-0.022119,-0.00442635
1775801476381926136,-0.00197049,-0.00450173,-0.00980777
1775801476382915756,-0.00197049,-0.00450173,-0.00980777
1775801476383790829,-0.00197049,-0.00450173,-0.00980777
1775801476384791420,-0.00197049,-0.00450173,-0.00980777
1775801476385808919,-0.00197049,-0.00450173,-0.00980777
1775801476386952487,-0.00503404,0.0112943,-0.016781
1775801476387851520,-0.00503404,0.0112943,-0.016781
1775801476388810988,-0.00503404,0.0112943,-0.016781
1775801476389953689,-0.00503404,0.0112943,-0.016781
1775801476390933042,-0.00503404,0.0112943,-0.016781
1775801476391746401,-0.00503404,0.0112943,-0.016781
1775801476392710224,-0.00689433,0.00639436,-0.0194993
1775801476393790105,-0.00689433,0.00639436,-0.0194993
1775801476394729858,-0.00689433,0.00639436,-0.0194993
1775801476395772869,-0.00689433,0.00639436,-0.0194993
1775801476396846294,-0.00686248,-0.00368854,-0.0218298
1775801476397711518,-0.00686248,-0.00368854,-0.0218298
1775801476398732948,-0.00686248,-0.00368854,-0.0218298
1775801476399924182,-0.00686248,-0.00368854,-0.0218298
1775801476400722050,-0.00686248,-0.00368854,-0.0218298
1775801476402033950,-0.00244344,-0.00795507,-0.0268737
1775801476402793879,-0.00244344,-0.00795507,-0.0268737
1775801476404092928,-0.00244344,-0.00795507,-0.0268737
1775801476404779609,-0.00244344,-0.00795507,-0.0268737
1775801476405948371,-0.00244344,-0.00795507,-0.0268737
1775801476406850695,-0.00244344,-0.00795507,-0.0268737
1775801476407919309,0.00102391,-0.00543611,-0.0283751
1775801476408708217,0.00102391,-0.00543611,-0.0283751
1775801476409906446,0.00102391,-0.00543611,-0.0283751
1775801476410873857,0.00102391,-0.00543611,-0.0283751
1775801476411908371,0.00706359,0.00389201,-0.0310978
1775801476412709918,0.00706359,0.00389201,-0.0310978
1775801476413901725,0.00706359,0.00389201,-0.0310978
1775801476414799956,0.00706359,0.00389201,-0.0310978
1775801476415904302,0.00706359,0.00389201,-0.0310978
1775801476416710472,0.00706359,0.00389201,-0.0310978
1775801476417910737,0.0100264,0.0152283,-0.031529
1775801476418834951,0.0100264,0.0152283,-0.031529
1775801476419970181,0.0100264,0.0152283,-0.031529
1775801476420735334,0.0100264,0.0152283,-0.031529
1775801476421942366,0.00836529,0.0181689,-0.0281284
1775801476422907543,0.00836529,0.0181689,-0.0281284
1775801476423857375,0.00836529,0.0181689,-0.0281284
1775801476424722210,0.00836529,0.0181689,-0.0281284
1775801476425930417,0.00836529,0.0181689,-0.0281284
1775801476426905068,0.00893589,0.0147896,-0.0185751
1775801476427833789,0.00893589,0.0147896,-0.0185751
1775801476428726940,0.00893589,0.0147896,-0.0185751
1775801476430026760,0.00893589,0.0147896,-0.0185751
1775801476430741533,0.00893589,0.0147896,-0.0185751
1775801476431900190,0.00893589,0.0147896,-0.0185751
1775801476432817127,0.00659136,0.00699935,-0.0150941
1775801476433915249,0.00659136,0.00699935,-0.0150941
1775801476434937922,0.00659136,0.00699935,-0.0150941
1775801476435913380,0.00659136,0.00699935,-0.0150941
1775801476436795184,0.00659136,0.00699935,-0.0150941
1775801476437928395,0.00352153,0.00472789,-0.0113661
1775801476438892005,0.00352153,0.00472789,-0.0113661
1775801476439953443,0.00352153,0.00472789,-0.0113661
1775801476440732866,0.00352153,0.00472789,-0.0113661
1775801476441932907,0.000684815,0.00274799,-0.0091221
1775801476442766110,0.000684815,0.00274799,-0.0091221
1775801476443932189,0.000684815,0.00274799,-0.0091221
1775801476444714020,0.000684815,0.00274799,-0.0091221
1775801476445914278,0.000684815,0.00274799,-0.0091221
1775801476446821315,0.000684815,0.00274799,-0.0091221
1775801476447970585,-0.00109774,0.0027098,-0.00250682
1775801476448708792,-0.00109774,0.0027098,-0.00250682
1775801476449915521,-0.00109774,0.0027098,-0.00250682
1775801476450807015,-0.00109774,0.0027098,-0.00250682
1775801476451884284,-0.00179256,0.00965294,0.00318008
1775801476452710960,-0.00179256,0.00965294,0.00318008
1775801476453983889,-0.00179256,0.00965294,0.00318008
1775801476455202699,-0.00179256,0.00965294,0.00318008
1775801476455916489,-0.00179256,0.00965294,0.00318008
1775801476456720540,-0.00179256,0.00965294,0.00318008
1775801476457917644,-0.00315852,0.0133293,0.00226697
1775801476458790856,-0.00315852,0.0133293,0.00226697
1775801476459994863,-0.00315852,0.0133293,0.00226697
1775801476460709320,-0.00315852,0.0133293,0.00226697
1775801476461821973,-0.00315852,0.0133293,0.00226697
1775801476462795089,-0.00359674,0.0153189,0.00269692
1775801476463923070,-0.00359674,0.0153189,0.00269692
1775801476464708561,-0.00359674,0.0153189,0.00269692
1775801476466034879,-0.00359674,0.0153189,0.00269692
1775801476466713491,-0.00359674,0.0153189,0.00269692
1775801476467859763,-0.00399063,0.0164005,0.00409297
1775801476468735763,-0.00399063,0.0164005,0.00409297
1775801476469957441,-0.00399063,0.0164005,0.00409297
1775801476470839570,-0.00399063,0.0164005,0.00409297
1775801476471992888,0.000293634,0.0161195,0.00514188
1775801476472718451,0.000293634,0.0161195,0.00514188
1775801476473952272,0.000293634,0.0161195,0.00514188
1775801476474817527,0.000293634,0.0161195,0.00514188
1775801476475916939,0.000293634,0.0161195,0.00514188
1775801476476679838,0.000293634,0.0161195,0.00514188
1775801476477903226,0.00191463,0.0181425,0.00397352
1775801476478792869,0.00191463,0.0181425,0.00397352
1775801476480004061,0.00191463,0.0181425,0.00397352
1775801476480684618,0.00191463,0.0181425,0.00397352
1775801476481926968,0.00191463,0.0181425,0.00397352
1775801476482814967,0.000825087,0.0154995,-0.00146259
1775801476483977951,0.000825087,0.0154995,-0.00146259
1775801476484728476,0.000825087,0.0154995,-0.00146259
1775801476485924594,0.000825087,0.0154995,-0.00146259
1775801476486858417,0.000825087,0.0154995,-0.00146259
1775801476487992385,0.00405396,0.0135051,0.000693733
1775801476488718921,0.00405396,0.0135051,0.000693733
1775801476489917321,0.00405396,0.0135051,0.000693733
1775801476490861762,0.00405396,0.0135051,0.000693733
1775801476491860892,0.00187963,0.0139957,-0.00357702
1775801476492757225,0.00187963,0.0139957,-0.00357702
1775801476494084924,0.00187963,0.0139957,-0.00357702
1775801476494768660,0.00187963,0.0139957,-0.00357702
1775801476495960117,0.00187963,0.0139957,-0.00357702
1775801476496718714,0.00187963,0.0139957,-0.00357702
1775801476497935103,-0.00132703,0.0149847,-0.00622664
1775801476498866978,-0.00132703,0.0149847,-0.00622664
1775801476499999217,-0.00132703,0.0149847,-0.00622664
1775801476500756629,-0.00132703,0.0149847,-0.00622664
1775801476501887967,-0.00132703,0.0149847,-0.00622664
1775801476502767794,-0.00586326,0.0144478,-0.00818291
1775801476503898081,-0.00586326,0.0144478,-0.00818291
1775801476504659383,-0.00586326,0.0144478,-0.00818291
1775801476505792085,-0.00586326,0.0144478,-0.00818291
1775801476506794292,-0.00586326,0.0144478,-0.00818291
1775801476507872416,-0.00788103,0.0189476,-0.00485877
1775801476508781990,-0.00788103,0.0189476,-0.00485877
1775801476509910983,-0.00788103,0.0189476,-0.00485877
1775801476510793129,-0.00788103,0.0189476,-0.00485877
1775801476511947457,-0.00626852,0.0158772,-0.00794652
1775801476512739236,-0.00626852,0.0158772,-0.00794652
1775801476514053004,-0.00626852,0.0158772,-0.00794652
1775801476514729102,-0.00626852,0.0158772,-0.00794652
1775801476515874638,-0.00626852,0.0158772,-0.00794652
1775801476516679774,-0.00626852,0.0158772,-0.00794652
1775801476517872721,-0.00761185,0.0145216,-0.00616562
1775801476518687921,-0.00761185,0.0145216,-0.00616562
1775801476519824983,-0.00761185,0.0145216,-0.00616562
1775801476520692219,-0.00761185,0.0145216,-0.00616562
1775801476521799198,-0.00761185,0.0145216,-0.00616562
1775801476522851789,-0.00580277,0.0127617,-0.00455292
1775801476523853202,-0.00580277,0.0127617,-0.00455292
1775801476524720810,-0.00580277,0.0127617,-0.00455292
1775801476525884109,-0.00580277,0.0127617,-0.00455292
1775801476526775144,-0.00580277,0.0127617,-0.00455292
1775801476527859770,-0.00647257,0.0158217,-0.00218091
1775801476528718005,-0.00647257,0.0158217,-0.00218091
1775801476529884624,-0.00647257,0.0158217,-0.00218091
1775801476530806464,-0.00647257,0.0158217,-0.00218091
1775801476531907193,-0.00647257,0.0158217,-0.00218091
1775801476532707864,-0.00335349,0.0147542,-0.00118208
1775801476533861328,-0.00335349,0.0147542,-0.00118208
1775801476534806658,-0.00335349,0.0147542,-0.00118208
1775801476535911635,-0.00335349,0.0147542,-0.00118208
1775801476536687386,-0.00335349,0.0147542,-0.00118208
1775801476537726231,0.00174488,0.0146337,0.000411357
1775801476538766004,0.00174488,0.0146337,0.000411357
1775801476539755607,0.00174488,0.0146337,0.000411357
1775801476540668374,0.00174488,0.0146337,0.000411357
1775801476541790641,0.00186537,0.012186,0.00260979
1775801476542670794,0.00186537,0.012186,0.00260979
1775801476543745987,0.00186537,0.012186,0.00260979
1775801476544682239,0.00186537,0.012186,0.00260979
1775801476545704395,0.00186537,0.012186,0.00260979
1775801476546763004,0.00186537,0.012186,0.00260979
1775801476547781023,-0.00231928,0.0104472,0.00804764
1775801476548683925,-0.00231928,0.0104472,0.00804764
1775801476549929449,-0.00231928,0.0104472,0.00804764
1775801476550702361,-0.00231928,0.0104472,0.00804764
1775801476551837358,-0.00727729,0.0136152,0.00990958
1775801476552696468,-0.00727729,0.0136152,0.00990958
1775801476553958523,-0.00727729,0.0136152,0.00990958
1775801476554711945,-0.00727729,0.0136152,0.00990958
1775801476555910087,-0.00727729,0.0136152,0.00990958
1775801476556730388,-0.00727729,0.0136152,0.00990958
1775801476557803451,-0.00752326,0.0188556,0.0100688
1775801476558741432,-0.00752326,0.0188556,0.0100688
1775801476559878213,-0.00752326,0.0188556,0.0100688
1775801476560754015,-0.00752326,0.0188556,0.0100688
1775801476561809922,-0.00752326,0.0188556,0.0100688
1775801476562754723,-0.00554516,0.0177974,0.0108351
1775801476564000443,-0.00554516,0.0177974,0.0108351
1775801476564941061,-0.00554516,0.0177974,0.0108351
1775801476565856432,-0.00554516,0.0177974,0.0108351
1775801476566812865,-0.00554516,0.0177974,0.0108351
1775801476567976399,-0.00569723,0.0114315,0.00765131
1775801476568866851,-0.00569723,0.0114315,0.00765131
1775801476569879498,-0.00569723,0.0114315,0.00765131
1775801476570896823,-0.00569723,0.0114315,0.00765131
1775801476572002353,-0.00529742,0.00953662,0.0113452
1775801476572890406,-0.00529742,0.00953662,0.0113452
1775801476574001723,-0.00529742,0.00953662,0.0113452
1775801476574947344,-0.00529742,0.00953662,0.0113452
1775801476575984282,-0.00529742,0.00953662,0.0113452
1775801476576820656,-0.00529742,0.00953662,0.0113452
1775801476578084940,-0.0042367,0.00936589,0.0107508
1775801476578847329,-0.0042367,0.00936589,0.0107508
1775801476579956615,-0.0042367,0.00936589,0.0107508
1775801476581026677,-0.0042367,0.00936589,0.0107508
1775801476581852687,-0.00178148,0.0110554,0.009856
1775801476582994881,-0.00178148,0.0110554,0.009856
1775801476583890919,-0.00178148,0.0110554,0.009856
1775801476584926462,-0.00178148,0.0110554,0.009856
1775801476585873047,-0.00178148,0.0110554,0.009856
1775801476587101197,0.000145176,0.0133834,0.00769147
1775801476587849562,0.000145176,0.0133834,0.00769147
1775801476588828117,0.000145176,0.0133834,0.00769147
1775801476589828587,0.000145176,0.0133834,0.00769147
1775801476590938760,0.000145176,0.0133834,0.00769147
1775801476591948460,0.00402906,0.00982397,0.0110211
1775801476592863579,0.00402906,0.00982397,0.0110211
1775801476593997386,0.00402906,0.00982397,0.0110211
1775801476595108951,0.00402906,0.00982397,0.0110211
1775801476595827974,0.00402906,0.00982397,0.0110211
1775801476596893349,0.00480334,0.00729471,0.0128682
1775801476598005305,0.00480334,0.00729471,0.0128682
1775801476598862059,0.00480334,0.00729471,0.0128682
1775801476600053972,0.00480334,0.00729471,0.0128682
1775801476600943595,0.00480334,0.00729471,0.0128682
1775801476602027610,0.00312531,0.00556329,0.00958563
1775801476602853023,0.00312531,0.00556329,0.00958563
1775801476604051958,0.00312531,0.00556329,0.00958563
1775801476604834247,0.00312531,0.00556329,0.00958563
1775801476606061527,0.00312531,0.00556329,0.00958563
1775801476606857962,-0.00177596,0.00295992,0.0138427
1775801476607965512,-0.00177596,0.00295992,0.0138427
